Time,Sensor,pos x,pos y,pos z,vel,orientation x,orientation y,orientation z,orientation w,ang vel z,lin acc x,lin acc y
94.150001402,pos,-704.278869373142,-3593.2697287726173,695.2934156627853,0.0,0.0,0.0,0.0,0.0,0.0,0.0,0.0
94.150001402,imu,0.0,0.0,0.0,0.0,0.0,-0.0,-0.9089592589166278,-0.4168849549093068,0.22379937767982483,7.9534687995910645,-2.5491597652435303
94.200001403,speed,0.0,0.0,0.0,-1.8603321604760834,0.0,0.0,0.0,0.0,0.0,0.0,0.0
94.200001403,pos,-704.4883408114654,-3593.3719799466658,695.309869706628,0.0,0.0,0.0,0.0,0.0,0.0,0.0,0.0
94.200001403,imu,0.0,0.0,0.0,0.0,0.0,-0.0,-0.9117523518598064,-0.410740366750228,0.6042079925537109,-82.69744873046875,-15.209296226501465
94.250001404,speed,0.0,0.0,0.0,-1.3156091959483225,0.0,0.0,0.0,0.0,0.0,0.0,0.0
94.250001404,pos,-704.5360493778063,-3592.936204614432,695.3363644796618,0.0,0.0,0.0,0.0,0.0,0.0,0.0,0.0
94.250001404,imu,0.0,0.0,0.0,0.0,0.0,-0.0,-0.9179497864921586,-0.39669659625335885,0.6120978593826294,-115.27313232421875,-10.712786674499512
94.300001405,speed,0.0,0.0,0.0,-0.5908351701899126,0.0,0.0,0.0,0.0,0.0,0.0,0.0
94.300001405,pos,-702.9411146678943,-3593.0771624334798,695.3442938590706,0.0,0.0,0.0,0.0,0.0,0.0,0.0,0.0
94.300001405,imu,0.0,0.0,0.0,0.0,0.0,-0.0,-0.9237322324009642,-0.3830388528903183,0.5719967484474182,15.371925354003906,6.278836727142334
94.350001405,speed,0.0,0.0,0.0,-0.23208011841302897,0.0,0.0,0.0,0.0,0.0,0.0,0.0
94.350001405,imu,0.0,0.0,0.0,0.0,0.0,-0.0,-0.9274776856848138,-0.37387851309849535,0.23783914744853973,12.409963607788086,13.714529037475586
94.350001405,pos,-704.1863390726298,-3593.613078040501,695.3429872300337,0.0,0.0,0.0,0.0,0.0,0.0,0.0,0.0
94.350001405,pos,-703.9696355935756,-3592.2306515188866,695.3374838902009,0.0,0.0,0.0,0.0,0.0,0.0,0.0,0.0
94.400001406,imu,0.0,0.0,0.0,0.0,0.0,-0.0,-0.9281804202682097,-0.37213049785086094,0.02337420918047428,5.157104969024658,9.016552925109863
94.400001406,speed,0.0,0.0,0.0,-0.021695146371749317,0.0,0.0,0.0,0.0,0.0,0.0,0.0
94.450001407,speed,0.0,0.0,0.0,0.15026324303545957,0.0,0.0,0.0,0.0,0.0,0.0,0.0
94.450001407,imu,0.0,0.0,0.0,0.0,0.0,-0.0,-0.9279005927479215,-0.3728276947573182,-0.02782522700726986,3.2180631160736084,2.5611422061920166
94.450001407,pos,-705.5439231412507,-3593.0502781484893,695.3302224777708,0.0,0.0,0.0,0.0,0.0,0.0,0.0,0.0
94.500001408,speed,0.0,0.0,0.0,0.2149965185140696,0.0,0.0,0.0,0.0,0.0,0.0,0.0
94.500001408,imu,0.0,0.0,0.0,0.0,0.0,-0.0,-0.9273997575529389,-0.37407177077500803,-0.052409496158361435,2.201225996017456,0.32469502091407776
94.500001408,pos,-704.5230761527619,-3593.6895155120246,695.322724135766,0.0,0.0,0.0,0.0,0.0,0.0,0.0,0.0
94.550001408,speed,0.0,0.0,0.0,0.20230350217701693,0.0,0.0,0.0,0.0,0.0,0.0,0.0
94.550001408,pos,-704.1481990636593,-3591.9590578772695,695.3158248104505,0.0,0.0,0.0,0.0,0.0,0.0,0.0,0.0
94.550001408,imu,0.0,0.0,0.0,0.0,0.0,-0.0,-0.9269058444127138,-0.3752939589089517,-0.051405780017375946,-0.21881647408008575,0.6205050349235535
94.600001409,speed,0.0,0.0,0.0,0.27608121058184004,0.0,0.0,0.0,0.0,0.0,0.0,0.0
94.600001409,pos,-705.1386641094105,-3594.566008718189,695.3097168231948,0.0,0.0,0.0,0.0,0.0,0.0,0.0,0.0
94.600001409,imu,0.0,0.0,0.0,0.0,0.0,-0.0,-0.9263498048058496,-0.3766643587282508,-0.04279274493455887,0.7282034158706665,0.045782845467329025
94.65000141,speed,0.0,0.0,0.0,0.3818764781501396,0.0,0.0,0.0,0.0,0.0,0.0,0.0
94.65000141,imu,0.0,0.0,0.0,0.0,0.0,-0.0,-0.9255422373687858,-0.37864438045002347,-0.07815460860729218,1.8099274635314941,-0.25831037759780884
94.65000141,pos,-704.6919060827814,-3593.861133205263,695.3044407415341,0.0,0.0,0.0,0.0,0.0,0.0,0.0,0.0
94.700001411,speed,0.0,0.0,0.0,0.003975955391184191,0.0,0.0,0.0,0.0,0.0,0.0,0.0
94.700001411,imu,0.0,0.0,0.0,0.0,0.0,-0.0,-0.9254098364331922,-0.37896785435270414,-0.0002980141434818506,-5.695998668670654,2.1431186199188232
94.700001411,pos,-704.0835299819067,-3593.353388818515,695.3005645816079,0.0,0.0,0.0,0.0,0.0,0.0,0.0,0.0
94.750001411,speed,0.0,0.0,0.0,0.001838338530792515,0.0,0.0,0.0,0.0,0.0,0.0,0.0
94.750001411,imu,0.0,0.0,0.0,0.0,0.0,-0.0,-0.9254063126270703,-0.3789764590973547,-0.0017965770093724132,-1.853041648864746,0.6191845536231995
94.750001411,pos,-705.4557254162105,-3593.969211078773,695.2974253991815,0.0,0.0,0.0,0.0,0.0,0.0,0.0,0.0
94.800001412,speed,0.0,0.0,0.0,0.0006517848469921174,0.0,0.0,0.0,0.0,0.0,0.0,0.0
94.800001412,imu,0.0,0.0,0.0,0.0,0.0,-0.0,-0.9253998972874329,-0.3789921240611851,-0.002482181880623102,-0.04714301973581314,0.2715913951396942
94.800001412,pos,-704.816768461905,-3593.2657137534356,695.2948328799437,0.0,0.0,0.0,0.0,0.0,0.0,0.0,0.0
94.850001413,speed,0.0,0.0,0.0,0.00012337281614518297,0.0,0.0,0.0,0.0,0.0,0.0,0.0
94.850001413,imu,0.0,0.0,0.0,0.0,0.0,-0.0,-0.9253931202322093,-0.37900867144023986,-0.0025818750727921724,-0.12139475345611572,0.31763187050819397
94.850001413,pos,-703.3839683520712,-3593.9934764929844,695.292754733366,0.0,0.0,0.0,0.0,0.0,0.0,0.0,0.0
94.850001413,imu,0.0,0.0,0.0,0.0,0.0,-0.0,-0.9253874272771585,-0.37902257114499366,7.997718057595193e-05,-0.1400933414697647,0.306125670671463
94.850001413,pos,-703.6961664703554,-3593.826505840464,695.2911627696458,0.0,0.0,0.0,0.0,0.0,0.0,0.0,0.0
94.900001414,speed,0.0,0.0,0.0,-9.520775878790787e-05,0.0,0.0,0.0,0.0,0.0,0.0,0.0
94.900001414,speed,0.0,0.0,0.0,-0.00020559872803945238,0.0,0.0,0.0,0.0,0.0,0.0,0.0
94.950001414,imu,0.0,0.0,0.0,0.0,0.0,-0.0,-0.9253829089102629,-0.3790336025958387,0.002046947367489338,-0.08983971923589706,0.23033858835697174
94.950001414,pos,-704.8531904028126,-3593.807760936405,695.2899454176297,0.0,0.0,0.0,0.0,0.0,0.0,0.0,0.0
95.000001415,speed,0.0,0.0,0.0,-0.00021527674258640098,0.0,0.0,0.0,0.0,0.0,0.0,0.0
95.000001415,pos,-704.9752975466595,-3593.7638180076347,695.2889424221607,0.0,0.0,0.0,0.0,0.0,0.0,0.0,0.0
95.000001415,imu,0.0,0.0,0.0,0.0,0.0,-0.0,-0.9253792941220629,-0.3790424277177328,-0.0005326265236362815,-0.12277229875326157,0.2947605550289154
95.050001416,speed,0.0,0.0,0.0,-0.00019739611926632817,0.0,0.0,0.0,0.0,0.0,0.0,0.0
95.050001416,pos,-703.8895519155051,-3593.75504988991,695.288204572264,0.0,0.0,0.0,0.0,0.0,0.0,0.0,0.0
95.050001416,imu,0.0,0.0,0.0,0.0,0.0,-0.0,-0.9253764926033197,-0.3790492671634893,0.0007802445907145739,-0.14874036610126495,0.25854453444480896
95.100001417,speed,0.0,0.0,0.0,-0.00011152023708135299,0.0,0.0,0.0,0.0,0.0,0.0,0.0
95.100001417,pos,-705.7654321777039,-3592.3287771152695,695.2875992269303,0.0,0.0,0.0,0.0,0.0,0.0,0.0,0.0
95.100001417,imu,0.0,0.0,0.0,0.0,0.0,-0.0,-0.9253745947715796,-0.3790539003246568,1.6443838831037283e-05,-0.13921068608760834,0.22944138944149017
95.150001417,speed,0.0,0.0,0.0,0.08133413632423665,0.0,0.0,0.0,0.0,0.0,0.0,0.0
95.150001417,imu,0.0,0.0,0.0,0.0,0.0,-0.0,-0.9253179202525282,-0.3791922289018273,-0.037486881017684937,0.3988039791584015,0.10274598747491837
95.150001417,pos,-705.0693091018579,-3593.5044412967663,695.2871706157853,0.0,0.0,0.0,0.0,0.0,0.0,0.0,0.0
95.200001418,speed,0.0,0.0,0.0,0.03380214598529664,0.0,0.0,0.0,0.0,0.0,0.0,0.0
95.200001418,imu,0.0,0.0,0.0,0.0,0.0,-0.0,-0.9252272161044057,-0.37941349288038145,0.010521274991333485,0.4793638288974762,0.0039810906164348125
95.200001418,pos,-704.0684421186502,-3593.5843414858264,695.2867184886613,0.0,0.0,0.0,0.0,0.0,0.0,0.0,0.0
95.200001418,speed,0.0,0.0,0.0,0.0005325013165335133,0.0,0.0,0.0,0.0,0.0,0.0,0.0
95.250001419,imu,0.0,0.0,0.0,0.0,0.0,-0.0,-0.9251759172694487,-0.37953856471330305,0.0007626418955624104,-0.8843328356742859,0.45850828289985657
95.250001419,pos,-704.2580041519924,-3592.825035458153,695.2865359099615,0.0,0.0,0.0,0.0,0.0,0.0,0.0,0.0
95.30000142,speed,0.0,0.0,0.0,0.00017304613259327167,0.0,0.0,0.0,0.0,0.0,0.0,0.0
95.30000142,pos,-704.2441204664541,-3593.65210423581,695.2863157930637,0.0,0.0,0.0,0.0,0.0,0.0,0.0,0.0
95.30000142,imu,0.0,0.0,0.0,0.0,0.0,-0.0,-0.9251765506914775,-0.3795370206588812,0.0015659425407648087,-0.45468127727508545,0.28891634941101074
95.35000142,speed,0.0,0.0,0.0,6.872995436039265e-05,0.0,0.0,0.0,0.0,0.0,0.0,0.0
95.35000142,pos,-703.6631531773887,-3592.658753511541,695.2861945364912,0.0,0.0,0.0,0.0,0.0,0.0,0.0,0.0
95.35000142,imu,0.0,0.0,0.0,0.0,0.0,-0.0,-0.9251769126457655,-0.37953613834159405,0.00020015225163660944,-0.13104771077632904,0.21562857925891876
95.35000142,imu,0.0,0.0,0.0,0.0,0.0,-0.0,-0.9251770936225939,-0.37953569718282104,-0.00020020347437821329,-0.09428751468658447,0.19161979854106903
95.400001421,pos,-704.5377777398692,-3592.2304494732566,695.2861651198497,0.0,0.0,0.0,0.0,0.0,0.0,0.0,0.0
95.400001421,speed,0.0,0.0,0.0,9.491584974433776e-07,0.0,0.0,0.0,0.0,0.0,0.0,0.0
95.450001422,speed,0.0,0.0,0.0,-6.352494974920402e-05,0.0,0.0,0.0,0.0,0.0,0.0,0.0
95.450001422,imu,0.0,0.0,0.0,0.0,0.0,-0.0,-0.9251775460637448,-0.37953459428551095,-0.001268889638595283,-0.11605335026979446,0.19729290902614594
95.450001422,pos,-703.8864392324274,-3594.115582860628,695.2861321097051,0.0,0.0,0.0,0.0,0.0,0.0,0.0,0.0
95.500001423,speed,0.0,0.0,0.0,-6.927619689807352e-05,0.0,0.0,0.0,0.0,0.0,0.0,0.0
95.500001423,imu,0.0,0.0,0.0,0.0,0.0,-0.0,-0.9251779080157189,-0.3795337119672746,0.002191198756918311,-0.12239750474691391,0.21579112112522125
95.500001423,pos,-704.4874543399296,-3593.663728085738,695.2860743024105,0.0,0.0,0.0,0.0,0.0,0.0,0.0,0.0
95.550001423,speed,0.0,0.0,0.0,-8.07068833002676e-05,0.0,0.0,0.0,0.0,0.0,0.0,0.0
95.550001423,imu,0.0,0.0,0.0,0.0,0.0,-0.0,-0.9251783604545031,-0.37953260906899366,0.0006396717508323491,-0.09984175115823746,0.1779479682445526
95.550001423,pos,-704.5802634653912,-3593.486601156783,695.2860440999782,0.0,0.0,0.0,0.0,0.0,0.0,0.0,0.0
95.600001424,speed,0.0,0.0,0.0,-8.983125803914486e-05,0.0,0.0,0.0,0.0,0.0,0.0,0.0
95.600001424,imu,0.0,0.0,0.0,0.0,0.0,-0.0,-0.9251789033793087,-0.37953128559034466,-0.0019140011863783002,-0.13473036885261536,0.22870288789272308
95.600001424,pos,-704.2552354499571,-3592.752527204119,695.2860103330516,0.0,0.0,0.0,0.0,0.0,0.0,0.0,0.0
95.600001424,speed,0.0,0.0,0.0,-4.986983504589933e-05,0.0,0.0,0.0,0.0,0.0,0.0,0.0
95.650001425,imu,0.0,0.0,0.0,0.0,0.0,-0.0,-0.9251795367891891,-0.3795297415309392,0.0011752367718145251,-0.10013524442911148,0.1766202449798584
95.650001425,pos,-703.8833333352138,-3593.17717084079,695.2859810633427,0.0,0.0,0.0,0.0,0.0,0.0,0.0,0.0
95.700001426,speed,0.0,0.0,0.0,-2.9345825873339185e-06,0.0,0.0,0.0,0.0,0.0,0.0,0.0
95.700001426,pos,-704.0640355841334,-3593.37009671651,695.2859725622002,0.0,0.0,0.0,0.0,0.0,0.0,0.0,0.0
95.700001426,imu,0.0,0.0,0.0,0.0,0.0,-0.0,-0.9251803511695345,-0.3795277563101503,-0.0008796606562100351,-0.11479751020669937,0.1916731595993042
95.750001426,speed,0.0,0.0,0.0,-7.343770718080645e-05,0.0,0.0,0.0,0.0,0.0,0.0,0.0
95.750001426,imu,0.0,0.0,0.0,0.0,0.0,-0.0,-0.9251810750595987,-0.379525991667982,-0.00011010924936272204,-0.12813110649585724,0.20337256789207458
95.750001426,pos,-703.4697658857689,-3593.8380973944904,695.2859818530828,0.0,0.0,0.0,0.0,0.0,0.0,0.0,0.0
95.800001427,speed,0.0,0.0,0.0,2.2862559952416655e-05,0.0,0.0,0.0,0.0,0.0,0.0,0.0
95.800001427,pos,-703.9743175087125,-3592.8157839449827,695.2859760666533,0.0,0.0,0.0,0.0,0.0,0.0,0.0,0.0
95.800001427,imu,0.0,0.0,0.0,0.0,0.0,-0.0,-0.9251818894318978,-0.37952400644389234,-0.0011921807890757918,-0.09438199549913406,0.18267865478992462
95.850001428,speed,0.0,0.0,0.0,-1.275394164586069e-06,0.0,0.0,0.0,0.0,0.0,0.0,0.0
95.850001428,pos,-704.4042392321668,-3592.4260164254047,695.2859835945865,0.0,0.0,0.0,0.0,0.0,0.0,0.0,0.0
95.850001428,imu,0.0,0.0,0.0,0.0,0.0,-0.0,-0.9251827942850118,-0.3795218006372988,0.0003970988909713924,-0.12261604517698288,0.18177615106105804
95.900001429,imu,0.0,0.0,0.0,0.0,0.0,-0.0,-0.9251827942850118,-0.3795218006372988,-0.0012661430519074202,-0.12126506865024567,0.21183529496192932
95.900001429,pos,-703.8595094748756,-3594.1170606867463,695.2859835318452,0.0,0.0,0.0,0.0,0.0,0.0,0.0,0.0
95.900001429,speed,0.0,0.0,0.0,-2.6811184609660147e-05,0.0,0.0,0.0,0.0,0.0,0.0,0.0
95.950001429,speed,0.0,0.0,0.0,-4.835717517611987e-05,0.0,0.0,0.0,0.0,0.0,0.0,0.0
95.950001429,imu,0.0,0.0,0.0,0.0,0.0,-0.0,-0.925184694459433,-0.37951716843643024,-0.0005513614160008729,-0.12210239470005035,0.1810677945613861
95.950001429,pos,-703.6694200142917,-3593.4641636396987,695.2859730548939,0.0,0.0,0.0,0.0,0.0,0.0,0.0,0.0
96.00000143,speed,0.0,0.0,0.0,-1.556498996003503e-05,0.0,0.0,0.0,0.0,0.0,0.0,0.0
96.00000143,imu,0.0,0.0,0.0,0.0,0.0,-0.0,-0.925184694459433,-0.37951716843643024,-0.0005101303104311228,-0.10732477903366089,0.19579268991947174
96.00000143,pos,-704.4858436745376,-3592.578142720325,695.285977578649,0.0,0.0,0.0,0.0,0.0,0.0,0.0,0.0
96.050001431,speed,0.0,0.0,0.0,0.0,0.0,0.0,0.0,0.0,0.0,0.0,0.0
96.050001431,imu,0.0,0.0,0.0,0.0,0.0,-0.0,-0.925184694459433,-0.37951716843643024,0.0018177187303081155,-0.11344705522060394,0.188040629029274
96.050001431,pos,-704.7847616822069,-3593.2312680521527,695.2859838675606,0.0,0.0,0.0,0.0,0.0,0.0,0.0,0.0
96.100001432,imu,0.0,0.0,0.0,0.0,0.0,-0.0,-0.9251872279892506,-0.37951099215380635,0.00030301467631943524,-0.11892177164554596,0.18239665031433105
96.100001432,pos,-704.373032409786,-3592.9335694457986,695.2859125076607,0.0,0.0,0.0,0.0,0.0,0.0,0.0,0.0
96.100001432,speed,0.0,0.0,0.0,-7.30368093879228e-06,0.0,0.0,0.0,0.0,0.0,0.0,0.0
96.150001432,speed,0.0,0.0,0.0,-4.2388951612356265e-05,0.0,0.0,0.0,0.0,0.0,0.0,0.0
96.150001432,pos,-703.3482947750595,-3593.410725030989,695.2859286410094,0.0,0.0,0.0,0.0,0.0,0.0,0.0,0.0
96.150001432,imu,0.0,0.0,0.0,0.0,0.0,-0.0,-0.9251883137751221,-0.3795083451703615,-0.0004945236723870039,-0.09113853424787521,0.1810300350189209
96.200001433,speed,0.0,0.0,0.0,-1.0128184909029176e-05,0.0,0.0,0.0,0.0,0.0,0.0,0.0
96.200001433,imu,0.0,0.0,0.0,0.0,0.0,-0.0,-0.9251883137751221,-0.3795083451703615,0.00048800016520544887,-0.1279638260602951,0.20061805844306946
96.200001433,pos,-704.6214066383925,-3592.769935750475,695.285921097849,0.0,0.0,0.0,0.0,0.0,0.0,0.0,0.0
96.250001434,speed,0.0,0.0,0.0,2.6915820119296753e-05,0.0,0.0,0.0,0.0,0.0,0.0,0.0
96.250001434,imu,0.0,0.0,0.0,0.0,0.0,-0.0,-0.9251883137751221,-0.3795083451703615,-0.00038257273263297975,-0.11525095999240875,0.18828409910202026
96.250001434,pos,-703.9844607129618,-3593.239603345444,695.2859163215933,0.0,0.0,0.0,0.0,0.0,0.0,0.0,0.0
96.300001434,speed,0.0,0.0,0.0,4.411864017764623e-05,0.0,0.0,0.0,0.0,0.0,0.0,0.0
96.300001434,pos,-704.583757625585,-3593.760419534674,695.2859160929941,0.0,0.0,0.0,0.0,0.0,0.0,0.0,0.0
96.300001434,imu,0.0,0.0,0.0,0.0,0.0,-0.0,-0.9251894900346035,-0.3795054776014574,-0.0005631608655676246,-0.11463730782270432,0.18720309436321259
96.350001435,speed,0.0,0.0,0.0,6.67313686475996e-05,0.0,0.0,0.0,0.0,0.0,0.0,0.0
96.350001435,imu,0.0,0.0,0.0,0.0,0.0,-0.0,-0.9251894900346035,-0.3795054776014574,-0.0007938825292512774,-0.11401161551475525,0.1860872209072113
96.350001435,pos,-703.9775018402785,-3592.605056596556,695.285915483898,0.0,0.0,0.0,0.0,0.0,0.0,0.0,0.0
96.350001435,imu,0.0,0.0,0.0,0.0,0.0,-0.0,-0.9251894900346035,-0.3795054776014574,-0.00027668930124491453,-0.11401666700839996,0.18825750052928925
96.400001436,pos,-704.6493465379169,-3594.1032134753955,695.2859255356225,0.0,0.0,0.0,0.0,0.0,0.0,0.0,0.0
96.400001436,speed,0.0,0.0,0.0,1.8802248186193945e-05,0.0,0.0,0.0,0.0,0.0,0.0,0.0
96.450001437,speed,0.0,0.0,0.0,1.787014010650732e-05,0.0,0.0,0.0,0.0,0.0,0.0,0.0
96.450001437,imu,0.0,0.0,0.0,0.0,0.0,-0.0,-0.9251894900346035,-0.3795054776014574,-0.001414128695614636,-0.11198737472295761,0.1852988600730896
96.450001437,pos,-704.7641678854039,-3593.6029914936257,695.2859207910642,0.0,0.0,0.0,0.0,0.0,0.0,0.0,0.0
96.500001437,pos,-704.163742491686,-3593.0759520852803,695.2859180374187,0.0,0.0,0.0,0.0,0.0,0.0,0.0,0.0
96.500001437,speed,0.0,0.0,0.0,4.6139113636398393e-05,0.0,0.0,0.0,0.0,0.0,0.0,0.0
96.500001437,imu,0.0,0.0,0.0,0.0,0.0,-0.0,-0.9251894900346035,-0.3795054776014574,0.0009599681943655014,-0.11511397361755371,0.1864115595817566
96.550001438,speed,0.0,0.0,0.0,4.631207348601164e-05,0.0,0.0,0.0,0.0,0.0,0.0,0.0
96.550001438,pos,-704.5975477321923,-3592.4221611880894,695.2859234062889,0.0,0.0,0.0,0.0,0.0,0.0,0.0,0.0
96.550001438,imu,0.0,0.0,0.0,0.0,0.0,-0.0,-0.9251894900346035,-0.3795054776014574,-0.0019736720714718103,-0.11376625299453735,0.18683183193206787
96.600001439,speed,0.0,0.0,0.0,1.9666618628621848e-05,0.0,0.0,0.0,0.0,0.0,0.0,0.0
96.600001439,imu,0.0,0.0,0.0,0.0,0.0,-0.0,-0.9251894900346035,-0.3795054776014574,-0.0006868737982586026,-0.11470188945531845,0.18689686059951782
96.600001439,pos,-704.5297189374505,-3593.3394383329137,695.2859277292991,0.0,0.0,0.0,0.0,0.0,0.0,0.0,0.0
96.65000144,speed,0.0,0.0,0.0,1.8600049541511428e-05,0.0,0.0,0.0,0.0,0.0,0.0,0.0
96.65000144,imu,0.0,0.0,0.0,0.0,0.0,-0.0,-0.9251903948435413,-0.37950327177674265,0.0021995462011545897,-0.12068340927362442,0.17808897793293
96.65000144,pos,-703.4979557073098,-3593.0549964843494,695.2859198497265,0.0,0.0,0.0,0.0,0.0,0.0,0.0,0.0
96.70000144,speed,0.0,0.0,0.0,1.932859328158238e-05,0.0,0.0,0.0,0.0,0.0,0.0,0.0
96.70000144,pos,-704.0902546110276,-3593.0874312363712,695.285933272311,0.0,0.0,0.0,0.0,0.0,0.0,0.0,0.0
96.70000144,imu,0.0,0.0,0.0,0.0,0.0,-0.0,-0.9251904853241458,-0.37950305119415256,-0.0007713474915362895,-0.09955161064863205,0.20188884437084198
96.70000144,imu,0.0,0.0,0.0,0.0,0.0,-0.0,-0.9251904853241458,-0.37950305119415256,-5.9403311752248555e-05,-0.12054277956485748,0.1813356578350067
96.750001441,pos,-703.9652477137847,-3593.2619418440026,695.2859172509475,0.0,0.0,0.0,0.0,0.0,0.0,0.0,0.0
96.750001441,speed,0.0,0.0,0.0,1.8086687353914403e-05,0.0,0.0,0.0,0.0,0.0,0.0,0.0
96.800001442,speed,0.0,0.0,0.0,1.778824469946045e-05,0.0,0.0,0.0,0.0,0.0,0.0,0.0
96.800001442,imu,0.0,0.0,0.0,0.0,0.0,-0.0,-0.9251904853241458,-0.37950305119415256,0.0012819798430427909,-0.11341014504432678,0.1870647817850113
96.800001442,pos,-703.8727859328471,-3593.8524972572536,695.2859138697895,0.0,0.0,0.0,0.0,0.0,0.0,0.0,0.0
96.800001442,imu,0.0,0.0,0.0,0.0,0.0,-0.0,-0.9251904853241458,-0.37950305119415256,-0.0013001554179936647,-0.11316194385290146,0.1869797557592392
96.800001442,speed,0.0,0.0,0.0,1.554907304561067e-05,0.0,0.0,0.0,0.0,0.0,0.0,0.0
96.850001443,pos,-705.0204812384316,-3592.8016029057044,695.2859237450189,0.0,0.0,0.0,0.0,0.0,0.0,0.0,0.0
96.900001443,speed,0.0,0.0,0.0,2.5891425336350962e-05,0.0,0.0,0.0,0.0,0.0,0.0,0.0
96.900001443,pos,-704.2473088813664,-3593.1696625129393,695.2859164602876,0.0,0.0,0.0,0.0,0.0,0.0,0.0,0.0
96.900001443,imu,0.0,0.0,0.0,0.0,0.0,-0.0,-0.9251909377263796,-0.37950194828087835,0.0003353776701260358,-0.12076052278280258,0.18001998960971832
96.900001443,pos,-704.2520905256077,-3593.010917246124,695.2859186031169,0.0,0.0,0.0,0.0,0.0,0.0,0.0,0.0
96.950001444,speed,0.0,0.0,0.0,4.419018155828974e-05,0.0,0.0,0.0,0.0,0.0,0.0,0.0
96.950001444,imu,0.0,0.0,0.0,0.0,0.0,-0.0,-0.9251910282066685,-0.37950172769815876,-0.0008454933995380998,-0.09334863722324371,0.17970941960811615
97.000001445,speed,0.0,0.0,0.0,2.3169860534226174e-05,0.0,0.0,0.0,0.0,0.0,0.0,0.0
97.000001445,imu,0.0,0.0,0.0,0.0,0.0,-0.0,-0.9251910282066685,-0.37950172769815876,0.0009958978043869138,-0.12681564688682556,0.20278748869895935
97.000001445,pos,-704.3023371014788,-3591.7437365523497,695.2859133821744,0.0,0.0,0.0,0.0,0.0,0.0,0.0,0.0
97.050001446,speed,0.0,0.0,0.0,2.2310756986037894e-05,0.0,0.0,0.0,0.0,0.0,0.0,0.0
97.050001446,imu,0.0,0.0,0.0,0.0,0.0,-0.0,-0.9251910282066685,-0.37950172769815876,0.0007568755536340177,-0.11227075010538101,0.18642660975456238
97.050001446,pos,-705.3186898892576,-3593.5969295048853,695.28591533795,0.0,0.0,0.0,0.0,0.0,0.0,0.0,0.0
97.100001446,speed,0.0,0.0,0.0,0.039547135683832224,0.0,0.0,0.0,0.0,0.0,0.0,0.0
97.100001446,pos,-705.3249584609307,-3593.6147172151013,695.2858611656591,0.0,0.0,0.0,0.0,0.0,0.0,0.0,0.0
97.100001446,imu,0.0,0.0,0.0,0.0,0.0,-0.0,-0.9251846039754625,-0.3795173890176397,0.006830788683146238,0.5564693808555603,-0.07985590398311615
97.150001447,speed,0.0,0.0,0.0,0.07286770346466549,0.0,0.0,0.0,0.0,0.0,0.0,0.0
97.150001447,imu,0.0,0.0,0.0,0.0,0.0,-0.0,-0.9250217381682848,-0.37991417967236396,-0.022381626069545746,0.4046441912651062,-0.09808899462223053
97.150001447,pos,-704.9326859500171,-3592.7100703293036,695.2857434644047,0.0,0.0,0.0,0.0,0.0,0.0,0.0,0.0
97.200001448,speed,0.0,0.0,0.0,0.08409738509230394,0.0,0.0,0.0,0.0,0.0,0.0,0.0
97.200001448,imu,0.0,0.0,0.0,0.0,0.0,-0.0,-0.9248710332535227,-0.38028091175940104,-0.010481883771717548,0.29419833421707153,0.24109289050102234
97.200001448,pos,-704.2618770580314,-3592.940512038743,695.2856452458218,0.0,0.0,0.0,0.0,0.0,0.0,0.0,0.0
97.200001448,pos,-704.2349595293119,-3592.916648881246,695.2853454930478,0.0,0.0,0.0,0.0,0.0,0.0,0.0,0.0
97.250001449,imu,0.0,0.0,0.0,0.0,0.0,-0.0,-0.9244690487241646,-0.38125710216471814,-0.05823137238621712,1.813417673110962,-0.7951950430870056
97.250001449,speed,0.0,0.0,0.0,0.2562248797729589,0.0,0.0,0.0,0.0,0.0,0.0,0.0
97.300001449,speed,0.0,0.0,0.0,0.4566631757205357,0.0,0.0,0.0,0.0,0.0,0.0,0.0
97.300001449,imu,0.0,0.0,0.0,0.0,0.0,-0.0,-0.9236316533164041,-0.3832813183446409,-0.1146070584654808,4.293227672576904,-0.7573031187057495
97.300001449,pos,-704.7989165037126,-3593.227434865447,695.284881824186,0.0,0.0,0.0,0.0,0.0,0.0,0.0,0.0
97.35000145,speed,0.0,0.0,0.0,0.6216837168100167,0.0,0.0,0.0,0.0,0.0,0.0,0.0
97.35000145,imu,0.0,0.0,0.0,0.0,0.0,-0.0,-0.922371303609995,-0.3863045149578225,-0.14601680636405945,2.879720449447632,-1.0475181341171265
97.35000145,pos,-703.77445803066,-3593.810059906738,695.2843015251567,0.0,0.0,0.0,0.0,0.0,0.0,0.0,0.0
97.400001451,speed,0.0,0.0,0.0,0.7952773726021245,0.0,0.0,0.0,0.0,0.0,0.0,0.0
97.400001451,imu,0.0,0.0,0.0,0.0,0.0,-0.0,-0.9207071158311029,-0.39025428486817676,-0.1937897801399231,3.254923105239868,-1.004298210144043
97.400001451,pos,-705.0049620605366,-3592.823228936185,695.2835328970518,0.0,0.0,0.0,0.0,0.0,0.0,0.0,0.0
97.400001451,imu,0.0,0.0,0.0,0.0,0.0,-0.0,-0.9199555761776248,-0.3920226241681649,0.0006056487909518182,-7.664849758148193,2.4369637966156006
97.400001451,pos,-705.3580429603222,-3593.845934827435,695.2835939919164,0.0,0.0,0.0,0.0,0.0,0.0,0.0,0.0
97.450001452,speed,0.0,0.0,0.0,0.017233836484313335,0.0,0.0,0.0,0.0,0.0,0.0,0.0
97.500001452,pos,-704.3337282828263,-3592.936319654508,695.2839160039257,0.0,0.0,0.0,0.0,0.0,0.0,0.0,0.0
97.500001452,speed,0.0,0.0,0.0,0.18557130783372303,0.0,0.0,0.0,0.0,0.0,0.0,0.0
97.500001452,imu,0.0,0.0,0.0,0.0,0.0,-0.0,-0.9198437540679398,-0.3922849322905475,-0.0193803608417511,-5.934185028076172,2.2173209190368652
97.550001453,imu,0.0,0.0,0.0,0.0,0.0,-0.0,-0.9197143548194895,-0.3925882137035831,0.0003308678278699517,-0.3884117603302002,0.44504204392433167
97.550001453,pos,-704.7086942375986,-3593.554777994921,695.2840566118023,0.0,0.0,0.0,0.0,0.0,0.0,0.0,0.0
97.550001453,speed,0.0,0.0,0.0,0.0024968495601807397,0.0,0.0,0.0,0.0,0.0,0.0,0.0
97.600001454,speed,0.0,0.0,0.0,0.0007404505382086128,0.0,0.0,0.0,0.0,0.0,0.0,0.0
97.600001454,imu,0.0,0.0,0.0,0.0,0.0,-0.0,-0.9197178179956951,-0.3925801004396906,0.001123816124163568,-0.8387522101402283,0.15295319259166718
97.600001454,pos,-704.0522640183459,-3593.248398979037,695.2841246073053,0.0,0.0,0.0,0.0,0.0,0.0,0.0,0.0
97.650001455,imu,0.0,0.0,0.0,0.0,0.0,-0.0,-0.9197187539769783,-0.3925779076604214,-0.001113039324991405,-0.10664977878332138,0.17028318345546722
97.650001455,speed,0.0,0.0,0.0,-0.0001602324724385235,0.0,0.0,0.0,0.0,0.0,0.0,0.0
97.650001455,pos,-704.9228387354514,-3592.797277708403,695.2841796701414,0.0,0.0,0.0,0.0,0.0,0.0,0.0,0.0
97.700001455,speed,0.0,0.0,0.0,-0.0004894756559552693,0.0,0.0,0.0,0.0,0.0,0.0,0.0
97.700001455,pos,-705.2718356506932,-3592.5596948256375,695.2841094770056,0.0,0.0,0.0,0.0,0.0,0.0,0.0,0.0
97.700001455,imu,0.0,0.0,0.0,0.0,0.0,-0.0,-0.9197187539769783,-0.3925779076604214,0.0005090151680633426,-0.07607012242078781,0.1676838994026184
97.750001456,speed,0.0,0.0,0.0,-0.0006303046342651203,0.0,0.0,0.0,0.0,0.0,0.0,0.0
97.750001456,imu,0.0,0.0,0.0,0.0,0.0,-0.0,-0.9197183795850924,-0.3925787847723969,-0.0010530868312343955,-0.12562112510204315,0.1995113492012024
97.750001456,pos,-704.3216212543888,-3592.926223151241,695.2840913197886,0.0,0.0,0.0,0.0,0.0,0.0,0.0,0.0
97.750001456,speed,0.0,0.0,0.0,-0.0006166961756057575,0.0,0.0,0.0,0.0,0.0,0.0,0.0
97.800001457,pos,-705.2967942391593,-3593.582728374649,695.284054989763,0.0,0.0,0.0,0.0,0.0,0.0,0.0,0.0
97.800001457,imu,0.0,0.0,0.0,0.0,0.0,-0.0,-0.9197180051923699,-0.3925796618840153,-0.0005108136683702469,-0.13035675883293152,0.18944159150123596
97.850001458,speed,0.0,0.0,0.0,0.12106941735080815,0.0,0.0,0.0,0.0,0.0,0.0,0.0
97.850001458,pos,-703.968136544504,-3592.556695842798,695.2839062527439,0.0,0.0,0.0,0.0,0.0,0.0,0.0,0.0
97.850001458,imu,0.0,0.0,0.0,0.0,0.0,-0.0,-0.9195203027326758,-0.39304250770420257,-0.03361402824521065,1.491727590560913,-0.32030564546585083
97.900001458,speed,0.0,0.0,0.0,0.20116414522770376,0.0,0.0,0.0,0.0,0.0,0.0,0.0
97.900001458,pos,-704.5451691217341,-3592.2837719777426,695.2836348021779,0.0,0.0,0.0,0.0,0.0,0.0,0.0,0.0
97.900001458,imu,0.0,0.0,0.0,0.0,0.0,-0.0,-0.9192003585388342,-0.39379017364845287,-0.04432235285639763,1.333791732788086,-0.4740827977657318
97.950001459,pos,-703.5884585437433,-3592.5836583428663,695.2833249222292,0.0,0.0,0.0,0.0,0.0,0.0,0.0,0.0
97.950001459,imu,0.0,0.0,0.0,0.0,0.0,-0.0,-0.9186611522928082,-0.3950464368502138,-0.05814237520098686,1.728408694267273,-0.23861990869045258
97.950001459,speed,0.0,0.0,0.0,0.2921709355263207,0.0,0.0,0.0,0.0,0.0,0.0,0.0
98.00000146,speed,0.0,0.0,0.0,0.4506676590618646,0.0,0.0,0.0,0.0,0.0,0.0,0.0
98.00000146,pos,-703.4358703381312,-3593.503402499691,695.282835612353,0.0,0.0,0.0,0.0,0.0,0.0,0.0,0.0
98.00000146,imu,0.0,0.0,0.0,0.0,0.0,-0.0,-0.917732967155692,-0.3971979367967683,-0.10165497660636902,2.853532552719116,-0.8915945291519165
98.050001461,pos,-704.3432796631621,-3592.7263428264864,695.2836912493441,0.0,0.0,0.0,0.0,0.0,0.0,0.0,0.0
98.050001461,imu,0.0,0.0,0.0,0.0,0.0,-0.0,-0.9176584225984032,-0.3973701290160226,0.036103006452322006,-4.291921615600586,0.037495799362659454
98.050001461,speed,0.0,0.0,0.0,0.03146604622312956,0.0,0.0,0.0,0.0,0.0,0.0,0.0
98.050001461,speed,0.0,0.0,0.0,0.02577072711474423,0.0,0.0,0.0,0.0,0.0,0.0,0.0
98.100001461,imu,0.0,0.0,0.0,0.0,0.0,-0.0,-0.9180395192620148,-0.3964888914877298,0.0328158400952816,-3.5248756408691406,1.4387199878692627
98.100001461,pos,-704.1730405818936,-3592.737071235046,695.2849103161041,0.0,0.0,0.0,0.0,0.0,0.0,0.0,0.0
98.150001462,pos,-703.530683222687,-3592.7622920706303,695.2858880770091,0.0,0.0,0.0,0.0,0.0,0.0,0.0,0.0
98.150001462,speed,0.0,0.0,0.0,0.02537781774139707,0.0,0.0,0.0,0.0,0.0,0.0,0.0
98.150001462,imu,0.0,0.0,0.0,0.0,0.0,-0.0,-0.9184087338514645,-0.39563290761177816,0.03680554777383804,-0.1123255118727684,0.17681284248828888
98.200001463,speed,0.0,0.0,0.0,0.023020102329133915,0.0,0.0,0.0,0.0,0.0,0.0,0.0
98.200001463,pos,-704.7426092330232,-3592.6644847407633,695.2865252928864,0.0,0.0,0.0,0.0,0.0,0.0,0.0,0.0
98.200001463,imu,0.0,0.0,0.0,0.0,0.0,-0.0,-0.9187137943370738,-0.39492399787145993,0.029166027903556824,-0.1879919171333313,0.4896802306175232
98.250001464,speed,0.0,0.0,0.0,0.021182626883429985,0.0,0.0,0.0,0.0,0.0,0.0,0.0
98.250001464,imu,0.0,0.0,0.0,0.0,0.0,-0.0,-0.9189826823641859,-0.3942978943828204,0.0303807333111763,-0.19098180532455444,0.3600018620491028
98.250001464,pos,-704.6049499967052,-3593.0179346738673,695.287052060422,0.0,0.0,0.0,0.0,0.0,0.0,0.0,0.0
98.300001464,speed,0.0,0.0,0.0,0.019364351645411837,0.0,0.0,0.0,0.0,0.0,0.0,0.0
98.300001464,pos,-703.6780255872866,-3592.1334405310486,695.2874114529823,0.0,0.0,0.0,0.0,0.0,0.0,0.0,0.0
98.300001464,imu,0.0,0.0,0.0,0.0,0.0,-0.0,-0.919272917496635,-0.3936207605770115,0.02787397801876068,-0.10150904953479767,0.14046631753444672
98.350001465,speed,0.0,0.0,0.0,0.018091299527067596,0.0,0.0,0.0,0.0,0.0,0.0,0.0
98.350001465,pos,-704.6464329001361,-3593.098495141316,695.2876855255254,0.0,0.0,0.0,0.0,0.0,0.0,0.0,0.0
98.350001465,imu,0.0,0.0,0.0,0.0,0.0,-0.0,-0.9195481318923241,-0.3929773951938419,0.028879620134830475,-0.1440228372812271,0.27997082471847534
98.400001466,speed,0.0,0.0,0.0,0.016407386780881054,0.0,0.0,0.0,0.0,0.0,0.0,0.0
98.400001466,pos,-703.8621326422377,-3593.6364741719067,695.2878337097818,0.0,0.0,0.0,0.0,0.0,0.0,0.0,0.0
98.400001466,imu,0.0,0.0,0.0,0.0,0.0,-0.0,-0.9198142901487852,-0.3923540131540472,0.025158923119306564,-0.18895971775054932,0.29794222116470337
98.450001467,speed,0.0,0.0,0.0,0.017846491139701305,0.0,0.0,0.0,0.0,0.0,0.0,0.0
98.450001467,imu,0.0,0.0,0.0,0.0,0.0,-0.0,-0.9200802125923462,-0.39173001212062253,0.023332122713327408,-0.13351042568683624,0.24576672911643982
98.450001467,pos,-703.9587717121179,-3592.769805167012,695.2879436641979,0.0,0.0,0.0,0.0,0.0,0.0,0.0,0.0
98.500001467,speed,0.0,0.0,0.0,0.017349302110761678,0.0,0.0,0.0,0.0,0.0,0.0,0.0
98.500001467,imu,0.0,0.0,0.0,0.0,0.0,-0.0,-0.920348415852328,-0.3910994674480015,0.02908855862915516,-0.11793202906847,0.20518912374973297
98.500001467,pos,-704.4912157734884,-3592.0899692753724,695.2879255005073,0.0,0.0,0.0,0.0,0.0,0.0,0.0,0.0
98.500001467,speed,0.0,0.0,0.0,0.017442955249575468,0.0,0.0,0.0,0.0,0.0,0.0,0.0
98.550001468,imu,0.0,0.0,0.0,0.0,0.0,-0.0,-0.9206098564095917,-0.39048366455142636,0.027477944269776344,-0.17767582833766937,0.2928576171398163
98.550001468,pos,-704.4825124060262,-3593.3036415769684,695.2879598215168,0.0,0.0,0.0,0.0,0.0,0.0,0.0,0.0
98.600001469,speed,0.0,0.0,0.0,0.016845007627476836,0.0,0.0,0.0,0.0,0.0,0.0,0.0
98.600001469,pos,-703.5043230615912,-3592.890248743991,695.2879847745544,0.0,0.0,0.0,0.0,0.0,0.0,0.0,0.0
98.600001469,imu,0.0,0.0,0.0,0.0,0.0,-0.0,-0.9208720003513133,-0.3898650522539443,0.025844965130090714,-0.16961514949798584,0.2723034918308258
98.650001469,speed,0.0,0.0,0.0,0.016351819950826192,0.0,0.0,0.0,0.0,0.0,0.0,0.0
98.650001469,imu,0.0,0.0,0.0,0.0,0.0,-0.0,-0.9211329861808374,-0.38924802089358546,0.02727397531270981,-0.14394646883010864,0.24814404547214508
98.650001469,pos,-703.8772634142081,-3592.5647038915267,695.2880228040844,0.0,0.0,0.0,0.0,0.0,0.0,0.0,0.0
98.70000147,speed,0.0,0.0,0.0,0.01705126095946529,0.0,0.0,0.0,0.0,0.0,0.0,0.0
98.70000147,imu,0.0,0.0,0.0,0.0,0.0,-0.0,-0.9213922613674058,-0.3886338903032753,0.026629487052559853,-0.15789763629436493,0.2617322504520416
98.70000147,pos,-705.0069845908093,-3591.484217051722,695.2880256546487,0.0,0.0,0.0,0.0,0.0,0.0,0.0,0.0
98.750001471,speed,0.0,0.0,0.0,0.017353684901482605,0.0,0.0,0.0,0.0,0.0,0.0,0.0
98.750001471,imu,0.0,0.0,0.0,0.0,0.0,-0.0,-0.9216510345945722,-0.38801980675057635,0.02761213295161724,-0.13083651661872864,0.2618497908115387
98.750001471,pos,-704.4681353990477,-3593.3166675148277,695.2879856315294,0.0,0.0,0.0,0.0,0.0,0.0,0.0,0.0
98.750001471,speed,0.0,0.0,0.0,0.016650662566154384,0.0,0.0,0.0,0.0,0.0,0.0,0.0
98.800001472,pos,-704.1712984854356,-3592.3440642167398,695.2879611180442,0.0,0.0,0.0,0.0,0.0,0.0,0.0,0.0
98.800001472,imu,0.0,0.0,0.0,0.0,0.0,-0.0,-0.921908382536698,-0.38740796869523636,0.026914212852716446,-0.18728654086589813,0.2365933358669281
98.850001472,speed,0.0,0.0,0.0,0.01678282931807915,0.0,0.0,0.0,0.0,0.0,0.0,0.0
98.850001472,pos,-704.7311544611441,-3592.146443517029,695.287869197321,0.0,0.0,0.0,0.0,0.0,0.0,0.0,0.0
98.850001472,imu,0.0,0.0,0.0,0.0,0.0,-0.0,-0.9221686441725596,-0.3867880449353925,0.02651960961520672,-0.15225397050380707,0.2993064820766449
98.850001472,speed,0.0,0.0,0.0,0.016787488468484647,0.0,0.0,0.0,0.0,0.0,0.0,0.0
98.900001473,pos,-703.7027401781334,-3592.661700937959,695.2878436753347,0.0,0.0,0.0,0.0,0.0,0.0,0.0,0.0
98.900001473,imu,0.0,0.0,0.0,0.0,0.0,-0.0,-0.9224271078997489,-0.38617124519014234,0.02697228454053402,-0.14347204566001892,0.2496124655008316
98.950001474,pos,-703.5635721964688,-3592.2376398867623,695.2878085270252,0.0,0.0,0.0,0.0,0.0,0.0,0.0,0.0
98.950001474,imu,0.0,0.0,0.0,0.0,0.0,-0.0,-0.9226821255781152,-0.3855615322340277,0.026433363556861877,-0.17077495157718658,0.2796841263771057
98.950001474,speed,0.0,0.0,0.0,0.016714524119148172,0.0,0.0,0.0,0.0,0.0,0.0,0.0
98.950001474,speed,0.0,0.0,0.0,0.01573787600713641,0.0,0.0,0.0,0.0,0.0,0.0,0.0
99.000001475,imu,0.0,0.0,0.0,0.0,0.0,-0.0,-0.922936832023379,-0.3849514308255642,0.026674091815948486,-0.13613438606262207,0.26005804538726807
99.000001475,pos,-704.1226990194231,-3592.6270692967028,695.2877516092581,0.0,0.0,0.0,0.0,0.0,0.0,0.0,0.0
99.050001475,speed,0.0,0.0,0.0,0.01648895783021656,0.0,0.0,0.0,0.0,0.0,0.0,0.0
99.050001475,imu,0.0,0.0,0.0,0.0,0.0,-0.0,-0.9231915932234941,-0.3843400606253097,0.02613881416618824,-0.16969895362854004,0.27923107147216797
99.050001475,pos,-704.2240306067572,-3593.7415455153678,695.28768154108,0.0,0.0,0.0,0.0,0.0,0.0,0.0,0.0
99.100001476,pos,-704.4625886327941,-3593.990556935372,695.2876515322018,0.0,0.0,0.0,0.0,0.0,0.0,0.0,0.0
99.100001476,imu,0.0,0.0,0.0,0.0,0.0,-0.0,-0.9234464983679924,-0.38372720082357126,0.02806229703128338,-0.15029475092887878,0.2437666952610016
99.100001476,speed,0.0,0.0,0.0,0.016770640249988897,0.0,0.0,0.0,0.0,0.0,0.0,0.0
99.150001477,speed,0.0,0.0,0.0,0.017290161750817372,0.0,0.0,0.0,0.0,0.0,0.0,0.0
99.150001477,imu,0.0,0.0,0.0,0.0,0.0,-0.0,-0.9237010880076966,-0.38311395173420354,0.027461709454655647,-0.1550542116165161,0.26514965295791626
99.150001477,pos,-703.819224902558,-3593.9596595682424,695.2875684346418,0.0,0.0,0.0,0.0,0.0,0.0,0.0,0.0
99.200001478,speed,0.0,0.0,0.0,0.0174630557114069,0.0,0.0,0.0,0.0,0.0,0.0,0.0
99.200001478,pos,-704.9774645451191,-3593.3233057565712,695.2875084642371,0.0,0.0,0.0,0.0,0.0,0.0,0.0,0.0
99.200001478,imu,0.0,0.0,0.0,0.0,0.0,-0.0,-0.9239561823462344,-0.3824983308514848,0.026671133935451508,-0.1600380837917328,0.2881906032562256
99.250001478,pos,-704.4057717514528,-3592.48568173535,695.2874148549254,0.0,0.0,0.0,0.0,0.0,0.0,0.0,0.0
99.250001478,imu,0.0,0.0,0.0,0.0,0.0,-0.0,-0.9242109574386304,-0.38188231976666615,0.02698078192770481,-0.12838977575302124,0.23941214382648468
99.250001478,speed,0.0,0.0,0.0,0.016597808724734472,0.0,0.0,0.0,0.0,0.0,0.0,0.0
99.250001478,speed,0.0,0.0,0.0,0.016325424227854688,0.0,0.0,0.0,0.0,0.0,0.0,0.0
99.300001479,imu,0.0,0.0,0.0,0.0,0.0,-0.0,-0.9244654127310618,-0.38126591857126124,0.027681903913617134,-0.1759972870349884,0.27448803186416626
99.300001479,pos,-704.6338827717555,-3592.0155797809457,695.2873215735821,0.0,0.0,0.0,0.0,0.0,0.0,0.0,0.0
99.35000148,imu,0.0,0.0,0.0,0.0,0.0,-0.0,-0.9247223610127779,-0.3806422927670459,0.027023794129490852,-0.14937910437583923,0.2728136479854584
99.35000148,speed,0.0,0.0,0.0,0.016840148868031715,0.0,0.0,0.0,0.0,0.0,0.0,0.0
99.35000148,pos,-705.2913629088642,-3593.424986653103,695.2872621816123,0.0,0.0,0.0,0.0,0.0,0.0,0.0,0.0
99.400001481,speed,0.0,0.0,0.0,0.0177716693023156,0.0,0.0,0.0,0.0,0.0,0.0,0.0
99.400001481,imu,0.0,0.0,0.0,0.0,0.0,-0.0,-0.9249783449873427,-0.3800198169891625,0.02671876922249794,-0.14113590121269226,0.25513991713523865
99.400001481,pos,-703.5260414313659,-3593.15851240929,695.2871689285419,0.0,0.0,0.0,0.0,0.0,0.0,0.0,0.0
99.450001481,imu,0.0,0.0,0.0,0.0,0.0,-0.0,-0.9252376185676071,-0.3793881247315777,0.026884859427809715,-0.15684649348258972,0.24163924157619476
99.450001481,speed,0.0,0.0,0.0,0.016937024201451902,0.0,0.0,0.0,0.0,0.0,0.0,0.0
99.450001481,pos,-704.6602017990589,-3593.3566264775955,695.287141360232,0.0,0.0,0.0,0.0,0.0,0.0,0.0,0.0
99.450001481,speed,0.0,0.0,0.0,0.015974055380050037,0.0,0.0,0.0,0.0,0.0,0.0,0.0
99.500001482,pos,-704.3219144875635,-3592.5939200137664,695.2870536546498,0.0,0.0,0.0,0.0,0.0,0.0,0.0,0.0
99.500001482,imu,0.0,0.0,0.0,0.0,0.0,-0.0,-0.9254914940298992,-0.3787683916040317,0.026654059067368507,-0.16929972171783447,0.3107181191444397
99.550001483,pos,-704.7566474486441,-3592.7229962485103,695.286984262277,0.0,0.0,0.0,0.0,0.0,0.0,0.0,0.0
99.550001483,speed,0.0,0.0,0.0,0.01939823760442622,0.0,0.0,0.0,0.0,0.0,0.0,0.0
99.550001483,imu,0.0,0.0,0.0,0.0,0.0,-0.0,-0.9257445036002037,-0.3781495921642816,0.02729789912700653,-0.13352367281913757,0.26222482323646545
99.600001484,speed,0.0,0.0,0.0,0.016231897335170935,0.0,0.0,0.0,0.0,0.0,0.0,0.0
99.600001484,pos,-703.7373484599163,-3593.8169889056585,695.2868872479885,0.0,0.0,0.0,0.0,0.0,0.0,0.0,0.0
99.600001484,imu,0.0,0.0,0.0,0.0,0.0,-0.0,-0.9259987196078151,-0.37752664976751904,0.0269437525421381,-0.16749811172485352,0.25553756952285767
99.650001484,pos,-704.8083170757703,-3592.7632789703184,695.2868613301907,0.0,0.0,0.0,0.0,0.0,0.0,0.0,0.0
99.650001484,speed,0.0,0.0,0.0,0.016495987098412088,0.0,0.0,0.0,0.0,0.0,0.0,0.0
99.650001484,imu,0.0,0.0,0.0,0.0,0.0,-0.0,-0.926252156987897,-0.3769044198139209,0.028064562007784843,-0.1538006067276001,0.29963311553001404
99.700001485,speed,0.0,0.0,0.0,0.015748267252288357,0.0,0.0,0.0,0.0,0.0,0.0,0.0
99.700001485,pos,-703.8521668806803,-3593.6603912890214,695.2867812686336,0.0,0.0,0.0,0.0,0.0,0.0,0.0,0.0
99.700001485,imu,0.0,0.0,0.0,0.0,0.0,-0.0,-0.9265075984788445,-0.3762760555243508,0.02817000448703766,-0.13257470726966858,0.23293080925941467
99.750001486,speed,0.0,0.0,0.0,0.01806054519137035,0.0,0.0,0.0,0.0,0.0,0.0,0.0
99.750001486,imu,0.0,0.0,0.0,0.0,0.0,-0.0,-0.9267610911405049,-0.37565127438631263,0.02878347970545292,-0.1609593629837036,0.2937339246273041
99.750001486,pos,-704.5635065765011,-3593.2060868008366,695.2867100626686,0.0,0.0,0.0,0.0,0.0,0.0,0.0,0.0
99.800001487,speed,0.0,0.0,0.0,0.016680371093507545,0.0,0.0,0.0,0.0,0.0,0.0,0.0
99.800001487,imu,0.0,0.0,0.0,0.0,0.0,-0.0,-0.927019527187031,-0.37501306139111146,0.026753783226013184,-0.1528802216053009,0.24124465882778168
99.800001487,pos,-704.6669167231968,-3593.339444632316,695.2866196450624,0.0,0.0,0.0,0.0,0.0,0.0,0.0,0.0
99.850001487,speed,0.0,0.0,0.0,0.016717995077474533,0.0,0.0,0.0,0.0,0.0,0.0,0.0
99.850001487,imu,0.0,0.0,0.0,0.0,0.0,-0.0,-0.9272689547298693,-0.37439589420047825,0.026776986196637154,-0.13702164590358734,0.2833491861820221
99.850001487,pos,-704.3070324502673,-3593.1898237348837,695.286564361938,0.0,0.0,0.0,0.0,0.0,0.0,0.0,0.0
99.900001488,imu,0.0,0.0,0.0,0.0,0.0,-0.0,-0.927521179524039,-0.37377060014711616,0.027843737974762917,-0.18110540509223938,0.298099547624588
99.900001488,pos,-705.4521536764013,-3592.3273755618484,695.2864656214249,0.0,0.0,0.0,0.0,0.0,0.0,0.0,0.0
99.900001488,speed,0.0,0.0,0.0,0.01761583025151946,0.0,0.0,0.0,0.0,0.0,0.0,0.0
99.950001489,speed,0.0,0.0,0.0,0.022487787192360425,0.0,0.0,0.0,0.0,0.0,0.0,0.0
99.950001489,pos,-704.3228392487161,-3593.2506363296625,695.286471001187,0.0,0.0,0.0,0.0,0.0,0.0,0.0,0.0
99.950001489,imu,0.0,0.0,0.0,0.0,0.0,-0.0,-0.9278265298707943,-0.3730119709445262,0.031906940042972565,-0.04628484696149826,-0.04240652546286583
100.00000149,imu,0.0,0.0,0.0,0.0,0.0,-0.0,-0.9281198102731171,-0.3722816377134295,0.03421345725655556,-0.20118598639965057,0.36594223976135254
100.00000149,pos,-703.8819551232623,-3593.6882183671346,695.2866180552617,0.0,0.0,0.0,0.0,0.0,0.0,0.0,0.0
100.00000149,speed,0.0,0.0,0.0,0.01990541974063224,0.0,0.0,0.0,0.0,0.0,0.0,0.0
100.05000149,speed,0.0,0.0,0.0,-0.0014120948698829316,0.0,0.0,0.0,0.0,0.0,0.0,0.0
100.05000149,imu,0.0,0.0,0.0,0.0,0.0,-0.0,-0.9281496302716836,-0.3722072861008191,0.00044863446964882314,-0.47861117124557495,1.6125446557998657
100.05000149,pos,-704.4249837595398,-3593.2804587996297,695.2864047395526,0.0,0.0,0.0,0.0,0.0,0.0,0.0,0.0
100.100001491,speed,0.0,0.0,0.0,-0.0023446199889933152,0.0,0.0,0.0,0.0,0.0,0.0,0.0
100.100001491,imu,0.0,0.0,0.0,0.0,0.0,-0.0,-0.928149009082465,-0.37220883511711306,0.0016377520514652133,-0.11724473536014557,0.2583381235599518
100.100001491,pos,-704.3005316150944,-3593.5430533519148,695.2857686971868,0.0,0.0,0.0,0.0,0.0,0.0,0.0,0.0
100.150001492,speed,0.0,0.0,0.0,-0.00253067292193283,0.0,0.0,0.0,0.0,0.0,0.0,0.0
100.150001492,imu,0.0,0.0,0.0,0.0,0.0,-0.0,-0.9281542447392318,-0.37219577909018015,-0.0001260710705537349,-0.1484779417514801,0.24837392568588257
100.150001492,pos,-704.6027714000487,-3593.1158277918366,695.2850377402322,0.0,0.0,0.0,0.0,0.0,0.0,0.0,0.0
100.150001492,pos,-705.4666814762198,-3591.4298477516795,695.2843255146099,0.0,0.0,0.0,0.0,0.0,0.0,0.0,0.0
100.150001492,imu,0.0,0.0,0.0,0.0,0.0,-0.0,-0.9281584153852324,-0.37218537847365035,0.0003318694361951202,-0.13119281828403473,0.22786197066307068
100.200001493,speed,0.0,0.0,0.0,-0.0025443866740162647,0.0,0.0,0.0,0.0,0.0,0.0,0.0
100.250001493,speed,0.0,0.0,0.0,-0.005339250324335473,0.0,0.0,0.0,0.0,0.0,0.0,0.0
100.250001493,pos,-702.7106074205203,-3593.364151319722,695.2837524235968,0.0,0.0,0.0,0.0,0.0,0.0,0.0,0.0
100.250001493,imu,0.0,0.0,0.0,0.0,0.0,-0.0,-0.9281673774429496,-0.37216302805447654,-0.00046483660116791725,-0.16802988946437836,0.2917312979698181
100.300001494,speed,0.0,0.0,0.0,-0.00043713698612071766,0.0,0.0,0.0,0.0,0.0,0.0,0.0
100.300001494,imu,0.0,0.0,0.0,0.0,0.0,-0.0,-0.9282506721973045,-0.371955225215687,0.02734765224158764,-0.0477580726146698,0.035275898873806
100.300001494,pos,-704.2219993109563,-3592.3763241328406,695.2832638230411,0.0,0.0,0.0,0.0,0.0,0.0,0.0,0.0
100.350001495,speed,0.0,0.0,0.0,0.0023856057331233453,0.0,0.0,0.0,0.0,0.0,0.0,0.0
100.350001495,imu,0.0,0.0,0.0,0.0,0.0,-0.0,-0.9282709787710806,-0.37190454416608054,0.007686255499720573,-0.1586311161518097,0.3342345058917999
100.350001495,pos,-704.0499103180613,-3592.732069790512,695.2828067937281,0.0,0.0,0.0,0.0,0.0,0.0,0.0,0.0
100.400001496,speed,0.0,0.0,0.0,0.01139700445086727,0.0,0.0,0.0,0.0,0.0,0.0,0.0
100.400001496,pos,-703.5295202619118,-3592.622318583466,695.2827073106291,0.0,0.0,0.0,0.0,0.0,0.0,0.0,0.0
100.400001496,imu,0.0,0.0,0.0,0.0,0.0,-0.0,-0.928410921265235,-0.37155505820192747,0.019481969997286797,0.014938494190573692,-0.3564244210720062
100.450001496,speed,0.0,0.0,0.0,0.014230806184151299,0.0,0.0,0.0,0.0,0.0,0.0,0.0
100.450001496,imu,0.0,0.0,0.0,0.0,0.0,-0.0,-0.9285791386974839,-0.37113445430980807,0.022916581481695175,-0.12684127688407898,0.13813380897045135
100.450001496,pos,-705.7207897987498,-3593.4922458714573,695.2828637392493,0.0,0.0,0.0,0.0,0.0,0.0,0.0,0.0
100.450001496,imu,0.0,0.0,0.0,0.0,0.0,-0.0,-0.9288261607190696,-0.37051580690150454,0.0284098032861948,-0.03778928890824318,-0.16098032891750336
100.450001496,speed,0.0,0.0,0.0,0.019000796288668898,0.0,0.0,0.0,0.0,0.0,0.0,0.0
100.500001497,pos,-703.7686547931831,-3592.7096145348805,695.2832011067042,0.0,0.0,0.0,0.0,0.0,0.0,0.0,0.0
100.550001498,pos,-704.1279258692603,-3592.495290782837,695.2835372217298,0.0,0.0,0.0,0.0,0.0,0.0,0.0,0.0
100.550001498,speed,0.0,0.0,0.0,0.019339309638736833,0.0,0.0,0.0,0.0,0.0,0.0,0.0
100.550001498,imu,0.0,0.0,0.0,0.0,0.0,-0.0,-0.9290939347340075,-0.36984383250296315,0.029993055388331413,-0.10277868062257767,0.17101584374904633
100.600001499,imu,0.0,0.0,0.0,0.0,0.0,-0.0,-0.929371872314907,-0.3691448536142474,0.032087743282318115,-0.12603360414505005,0.18288229405879974
100.600001499,speed,0.0,0.0,0.0,0.02033908294553209,0.0,0.0,0.0,0.0,0.0,0.0,0.0
100.600001499,pos,-703.7509415126492,-3593.4220786360356,695.2838366423348,0.0,0.0,0.0,0.0,0.0,0.0,0.0,0.0
100.650001499,speed,0.0,0.0,0.0,0.01919629110062212,0.0,0.0,0.0,0.0,0.0,0.0,0.0
100.650001499,imu,0.0,0.0,0.0,0.0,0.0,-0.0,-0.9296392694451988,-0.3684709333250007,0.027468882501125336,-0.15403440594673157,0.30130821466445923
100.650001499,pos,-704.8186873445294,-3592.8273547603712,695.2842081812678,0.0,0.0,0.0,0.0,0.0,0.0,0.0,0.0
100.7000015,imu,0.0,0.0,0.0,0.0,0.0,-0.0,-0.9298789038718885,-0.36786576917948616,0.01742546819150448,-0.13394565880298615,0.3571530282497406
100.7000015,speed,0.0,0.0,0.0,0.012781996164722753,0.0,0.0,0.0,0.0,0.0,0.0,0.0
100.7000015,pos,-704.1844025133834,-3592.0724673763107,695.284482458979,0.0,0.0,0.0,0.0,0.0,0.0,0.0,0.0
100.750001501,speed,0.0,0.0,0.0,0.02034803241369296,0.0,0.0,0.0,0.0,0.0,0.0,0.0
100.750001501,imu,0.0,0.0,0.0,0.0,0.0,-0.0,-0.9301462489433278,-0.36718926397248736,0.03170182555913925,-0.11462903022766113,0.0724107176065445
100.750001501,pos,-703.6354455898095,-3592.9833505124825,695.284635478044,0.0,0.0,0.0,0.0,0.0,0.0,0.0,0.0
100.800001502,imu,0.0,0.0,0.0,0.0,0.0,-0.0,-0.930414762119133,-0.3665083497422632,0.031361378729343414,-0.13856855034828186,0.246559277176857
100.800001502,speed,0.0,0.0,0.0,0.019066985651329804,0.0,0.0,0.0,0.0,0.0,0.0,0.0
100.800001502,pos,-704.7914206109531,-3592.90445288458,695.2847595237301,0.0,0.0,0.0,0.0,0.0,0.0,0.0,0.0
100.850001502,speed,0.0,0.0,0.0,0.02028210089493275,0.0,0.0,0.0,0.0,0.0,0.0,0.0
100.850001502,pos,-704.3312194472242,-3593.40340235563,695.2848193060844,0.0,0.0,0.0,0.0,0.0,0.0,0.0,0.0
100.850001502,imu,0.0,0.0,0.0,0.0,0.0,-0.0,-0.9306438714449832,-0.36592620095026474,0.02932688221335411,-0.1733781397342682,0.46368369460105896
100.900001503,pos,-703.9719045864276,-3593.119867550124,695.2849489915607,0.0,0.0,0.0,0.0,0.0,0.0,0.0,0.0
100.900001503,speed,0.0,0.0,0.0,0.020745433901062756,0.0,0.0,0.0,0.0,0.0,0.0,0.0
100.900001503,imu,0.0,0.0,0.0,0.0,0.0,-0.0,-0.9309283527471293,-0.36520186479742467,0.030230021104216576,-0.06913880258798599,-0.06338002532720566
100.950001504,speed,0.0,0.0,0.0,0.01917192626946112,0.0,0.0,0.0,0.0,0.0,0.0,0.0
100.950001504,imu,0.0,0.0,0.0,0.0,0.0,-0.0,-0.9312100978154857,-0.3644828579322676,0.03030492551624775,-0.14203554391860962,0.2803550064563751
100.950001504,pos,-703.8526287824984,-3592.4329201657,695.2849975183199,0.0,0.0,0.0,0.0,0.0,0.0,0.0,0.0
101.000001505,speed,0.0,0.0,0.0,0.020861080503318256,0.0,0.0,0.0,0.0,0.0,0.0,0.0
101.000001505,imu,0.0,0.0,0.0,0.0,0.0,-0.0,-0.9315030820751284,-0.36373342997934155,0.030558884143829346,-0.1173180341720581,0.16786013543605804
101.000001505,pos,-704.5986755824713,-3592.904543252766,695.2850192462147,0.0,0.0,0.0,0.0,0.0,0.0,0.0,0.0
101.050001505,speed,0.0,0.0,0.0,0.019921449380779097,0.0,0.0,0.0,0.0,0.0,0.0,0.0
101.050001505,imu,0.0,0.0,0.0,0.0,0.0,-0.0,-0.931797626738556,-0.3629782125753482,0.03272064030170441,-0.12779352068901062,0.27236059308052063
101.050001505,pos,-704.2855461428453,-3593.041841018534,695.2850906518256,0.0,0.0,0.0,0.0,0.0,0.0,0.0,0.0
101.100001506,speed,0.0,0.0,0.0,0.01986283169663087,0.0,0.0,0.0,0.0,0.0,0.0,0.0
101.100001506,pos,-704.1899015198537,-3592.392914994451,695.2850995298531,0.0,0.0,0.0,0.0,0.0,0.0,0.0,0.0
101.100001506,imu,0.0,0.0,0.0,0.0,0.0,-0.0,-0.9320840455327951,-0.3622420904080838,0.03179706633090973,-0.16909706592559814,0.28697019815444946
101.150001507,speed,0.0,0.0,0.0,0.01995244999862657,0.0,0.0,0.0,0.0,0.0,0.0,0.0
101.150001507,imu,0.0,0.0,0.0,0.0,0.0,-0.0,-0.9323788462296748,-0.3614826235151841,0.03296835720539093,-0.12335363030433655,0.22160488367080688
101.150001507,pos,-705.1821306153295,-3593.719612935868,695.2850906690987,0.0,0.0,0.0,0.0,0.0,0.0,0.0,0.0
101.150001507,speed,0.0,0.0,0.0,0.01973046201991304,0.0,0.0,0.0,0.0,0.0,0.0,0.0
101.200001507,imu,0.0,0.0,0.0,0.0,0.0,-0.0,-0.9326686418848716,-0.3607342573760205,0.03233182057738304,-0.15797464549541473,0.2764206528663635
101.200001507,pos,-705.5444261531137,-3593.0042072222695,695.2850979659017,0.0,0.0,0.0,0.0,0.0,0.0,0.0,0.0
101.200001507,speed,0.0,0.0,0.0,0.019110994609586845,0.0,0.0,0.0,0.0,0.0,0.0,0.0
101.250001508,imu,0.0,0.0,0.0,0.0,0.0,-0.0,-0.932952000493389,-0.36000078440940025,0.029796063899993896,-0.12204474955797195,0.27971792221069336
101.250001508,pos,-704.7695135423965,-3592.7295490406686,695.2850617105332,0.0,0.0,0.0,0.0,0.0,0.0,0.0,0.0
101.300001509,pos,-704.1744790251629,-3593.395072703317,695.2850376528074,0.0,0.0,0.0,0.0,0.0,0.0,0.0,0.0
101.300001509,speed,0.0,0.0,0.0,0.02009383698736881,0.0,0.0,0.0,0.0,0.0,0.0,0.0
101.300001509,imu,0.0,0.0,0.0,0.0,0.0,-0.0,-0.9332420628453084,-0.35924817624621763,0.033656906336545944,-0.14024144411087036,0.21158850193023682
101.35000151,speed,0.0,0.0,0.0,0.016937428428767488,0.0,0.0,0.0,0.0,0.0,0.0,0.0
101.35000151,pos,-703.7121113601618,-3592.264709731789,695.2850281579108,0.0,0.0,0.0,0.0,0.0,0.0,0.0,0.0
101.35000151,imu,0.0,0.0,0.0,0.0,0.0,-0.0,-0.9334745819857742,-0.3586435623101078,0.0251865666359663,-0.23336149752140045,0.5845809578895569
101.35000151,imu,0.0,0.0,0.0,0.0,0.0,-0.0,-0.9337522004126126,-0.3579201422448925,0.03126668184995651,-0.05219008028507233,0.023342447355389595
101.35000151,pos,-704.7240541162311,-3592.8996845099978,695.2849487647709,0.0,0.0,0.0,0.0,0.0,0.0,0.0,0.0
101.40000151,speed,0.0,0.0,0.0,0.021343348619774563,0.0,0.0,0.0,0.0,0.0,0.0,0.0
101.450001511,speed,0.0,0.0,0.0,0.020409534754727975,0.0,0.0,0.0,0.0,0.0,0.0,0.0
101.450001511,imu,0.0,0.0,0.0,0.0,0.0,-0.0,-0.934051398605814,-0.3571386072136739,0.03197840601205826,-0.14375822246074677,0.1293044239282608
101.450001511,pos,-704.90750747404,-3592.878954148518,695.2848859461619,0.0,0.0,0.0,0.0,0.0,0.0,0.0,0.0
101.500001512,speed,0.0,0.0,0.0,0.02108525605838544,0.0,0.0,0.0,0.0,0.0,0.0,0.0
101.500001512,pos,-704.4748027356667,-3593.0806406458387,695.2848003446852,0.0,0.0,0.0,0.0,0.0,0.0,0.0,0.0
101.500001512,imu,0.0,0.0,0.0,0.0,0.0,-0.0,-0.9343447598812179,-0.3563704107842139,0.0343543216586113,-0.11335375905036926,0.28929340839385986
101.500001512,speed,0.0,0.0,0.0,0.01694251369955039,0.0,0.0,0.0,0.0,0.0,0.0,0.0
101.550001513,imu,0.0,0.0,0.0,0.0,0.0,-0.0,-0.9345751601588511,-0.3557657516035767,0.027419958263635635,-0.26585614681243896,0.6112481355667114
101.550001513,pos,-704.1377077826955,-3593.149442821609,695.2847663534653,0.0,0.0,0.0,0.0,0.0,0.0,0.0,0.0
101.600001513,imu,0.0,0.0,0.0,0.0,0.0,-0.0,-0.934869000461037,-0.3549928900372252,0.030703408643603325,-0.01841740496456623,-0.10585927963256836
101.600001513,speed,0.0,0.0,0.0,0.019496116986370274,0.0,0.0,0.0,0.0,0.0,0.0,0.0
101.600001513,pos,-704.8634492868453,-3592.531086312058,695.2847260941912,0.0,0.0,0.0,0.0,0.0,0.0,0.0,0.0
101.650001514,speed,0.0,0.0,0.0,0.017569091784542155,0.0,0.0,0.0,0.0,0.0,0.0,0.0
101.650001514,imu,0.0,0.0,0.0,0.0,0.0,-0.0,-0.9351365255933606,-0.3542875647001713,0.029325228184461594,-0.2109125703573227,0.44380077719688416
101.650001514,pos,-703.799795619861,-3592.979188887667,695.2846006651216,0.0,0.0,0.0,0.0,0.0,0.0,0.0,0.0
101.650001514,speed,0.0,0.0,0.0,0.016638179330204998,0.0,0.0,0.0,0.0,0.0,0.0,0.0
101.700001515,pos,-703.8323701296763,-3593.483733668135,695.2844841014886,0.0,0.0,0.0,0.0,0.0,0.0,0.0,0.0
101.700001515,imu,0.0,0.0,0.0,0.0,0.0,-0.0,-0.9354088294106297,-0.3535679876072429,0.02650987170636654,-0.11817686259746552,0.20553283393383026
101.750001516,speed,0.0,0.0,0.0,0.01680618322598934,0.0,0.0,0.0,0.0,0.0,0.0,0.0
101.750001516,pos,-703.6973886477192,-3592.439038818191,695.2843901741553,0.0,0.0,0.0,0.0,0.0,0.0,0.0,0.0
101.750001516,imu,0.0,0.0,0.0,0.0,0.0,-0.0,-0.9356439798678081,-0.3529452407061593,0.02606988698244095,-0.19927413761615753,0.4817759692668915
101.750001516,speed,0.0,0.0,0.0,0.01780921859540003,0.0,0.0,0.0,0.0,0.0,0.0,0.0
101.800001516,pos,-704.3494927157698,-3592.683985096396,695.2842983116839,0.0,0.0,0.0,0.0,0.0,0.0,0.0,0.0
101.800001516,imu,0.0,0.0,0.0,0.0,0.0,-0.0,-0.9358987902585844,-0.35226900856095517,0.028676582500338554,-0.0943768322467804,0.14971257746219635
101.850001517,speed,0.0,0.0,0.0,0.018034176074596946,0.0,0.0,0.0,0.0,0.0,0.0,0.0
101.850001517,pos,-704.5746301412604,-3592.4554167820115,695.2841814239258,0.0,0.0,0.0,0.0,0.0,0.0,0.0,0.0
101.850001517,imu,0.0,0.0,0.0,0.0,0.0,-0.0,-0.9361485013840991,-0.35160486822042925,0.026537692174315453,-0.16816826164722443,0.2948608994483948
101.900001518,speed,0.0,0.0,0.0,0.01625912342390713,0.0,0.0,0.0,0.0,0.0,0.0,0.0
101.900001518,pos,-704.8395953540429,-3592.9985007652426,695.2840818195564,0.0,0.0,0.0,0.0,0.0,0.0,0.0,0.0
101.900001518,imu,0.0,0.0,0.0,0.0,0.0,-0.0,-0.9363933902660153,-0.350952160081852,0.02801029197871685,-0.13390570878982544,0.3043231666088104
101.950001519,speed,0.0,0.0,0.0,0.016829509777477596,0.0,0.0,0.0,0.0,0.0,0.0,0.0
101.950001519,imu,0.0,0.0,0.0,0.0,0.0,-0.0,-0.9366303907620388,-0.350319156057659,0.02808348461985588,-0.13908223807811737,0.29672664403915405
101.950001519,pos,-704.9838792390483,-3592.2394421078825,695.2838419684681,0.0,0.0,0.0,0.0,0.0,0.0,0.0,0.0
102.000001519,pos,-705.2982780445121,-3593.041610141299,695.2837426586311,0.0,0.0,0.0,0.0,0.0,0.0,0.0,0.0
102.000001519,imu,0.0,0.0,0.0,0.0,0.0,-0.0,-0.9368654626478838,-0.3496900125790935,0.02757612243294716,-0.1618501991033554,0.28008759021759033
102.000001519,speed,0.0,0.0,0.0,0.015753531871385878,0.0,0.0,0.0,0.0,0.0,0.0,0.0
102.000001519,speed,0.0,0.0,0.0,0.01625357784777201,0.0,0.0,0.0,0.0,0.0,0.0,0.0
102.05000152,imu,0.0,0.0,0.0,0.0,0.0,-0.0,-0.9370963668630865,-0.3490707653356317,0.026628078892827034,-0.1368376910686493,0.3017995059490204
102.05000152,pos,-704.0085084478726,-3593.479081058724,695.2836349092272,0.0,0.0,0.0,0.0,0.0,0.0,0.0,0.0
102.100001521,speed,0.0,0.0,0.0,0.016843155115246332,0.0,0.0,0.0,0.0,0.0,0.0,0.0
102.100001521,imu,0.0,0.0,0.0,0.0,0.0,-0.0,-0.9373252002134328,-0.3484558351424871,0.024206701666116714,-0.13457797467708588,0.25268110632896423
102.100001521,pos,-704.7434109171968,-3591.904616414535,695.2835276893775,0.0,0.0,0.0,0.0,0.0,0.0,0.0,0.0
102.150001522,speed,0.0,0.0,0.0,0.015211011666816394,0.0,0.0,0.0,0.0,0.0,0.0,0.0
102.150001522,imu,0.0,0.0,0.0,0.0,0.0,-0.0,-0.9375546252182221,-0.3478380725738905,0.025217456743121147,-0.1431942880153656,0.2971954047679901
102.150001522,pos,-705.0445264660389,-3593.65155379157,695.283474873986,0.0,0.0,0.0,0.0,0.0,0.0,0.0,0.0
102.150001522,pos,-705.1281457528057,-3592.960343280686,695.2833599739033,0.0,0.0,0.0,0.0,0.0,0.0,0.0,0.0
102.200001522,speed,0.0,0.0,0.0,0.016002376002277763,0.0,0.0,0.0,0.0,0.0,0.0,0.0
102.200001522,imu,0.0,0.0,0.0,0.0,0.0,-0.0,-0.9377818218194043,-0.34722507781708273,0.027607854455709457,-0.1277175396680832,0.257581889629364
102.250001523,speed,0.0,0.0,0.0,0.016748498874952236,0.0,0.0,0.0,0.0,0.0,0.0,0.0
102.250001523,pos,-705.2780811757855,-3592.9769113232724,695.2832230152944,0.0,0.0,0.0,0.0,0.0,0.0,0.0,0.0
102.250001523,imu,0.0,0.0,0.0,0.0,0.0,-0.0,-0.9380131626798047,-0.3465996345056211,0.024774186313152313,-0.1396162062883377,0.2720896899700165
102.250001523,speed,0.0,0.0,0.0,0.015693168842001518,0.0,0.0,0.0,0.0,0.0,0.0,0.0
102.300001524,imu,0.0,0.0,0.0,0.0,0.0,-0.0,-0.9382405394329398,-0.34598365592118097,0.026059089228510857,-0.14683939516544342,0.2672746479511261
102.300001524,pos,-704.4330908994405,-3593.3807350867123,695.283196265892,0.0,0.0,0.0,0.0,0.0,0.0,0.0,0.0
102.350001525,speed,0.0,0.0,0.0,0.015426731184071169,0.0,0.0,0.0,0.0,0.0,0.0,0.0
102.350001525,pos,-704.8265778863988,-3592.979245365481,695.2831118769677,0.0,0.0,0.0,0.0,0.0,0.0,0.0,0.0
102.350001525,imu,0.0,0.0,0.0,0.0,0.0,-0.0,-0.9384700642600774,-0.34536059197263114,0.0253815408796072,-0.14039118587970734,0.27318644523620605
102.400001525,speed,0.0,0.0,0.0,0.01754957988205234,0.0,0.0,0.0,0.0,0.0,0.0,0.0
102.400001525,pos,-705.0044841897161,-3592.9774498431557,695.28303888142,0.0,0.0,0.0,0.0,0.0,0.0,0.0,0.0
102.400001525,imu,0.0,0.0,0.0,0.0,0.0,-0.0,-0.9387007369593177,-0.34473312349125074,0.025674059987068176,-0.12917710840702057,0.2794469892978668
102.450001526,speed,0.0,0.0,0.0,0.016084524143886603,0.0,0.0,0.0,0.0,0.0,0.0,0.0
102.450001526,pos,-704.1818685147268,-3592.292023443333,695.2829586786034,0.0,0.0,0.0,0.0,0.0,0.0,0.0,0.0
102.450001526,imu,0.0,0.0,0.0,0.0,0.0,-0.0,-0.938932056658609,-0.3441025907761154,0.027901150286197662,-0.1349414736032486,0.2525007128715515
102.500001527,speed,0.0,0.0,0.0,0.016876372140801784,0.0,0.0,0.0,0.0,0.0,0.0,0.0
102.500001527,imu,0.0,0.0,0.0,0.0,0.0,-0.0,-0.939160987446771,-0.3434772767709765,0.027382824569940567,-0.12981781363487244,0.2801297605037689
102.500001527,pos,-703.8647977570744,-3592.506363217268,695.2828676240598,0.0,0.0,0.0,0.0,0.0,0.0,0.0,0.0
102.550001528,speed,0.0,0.0,0.0,0.0157710548970716,0.0,0.0,0.0,0.0,0.0,0.0,0.0
102.550001528,imu,0.0,0.0,0.0,0.0,0.0,-0.0,-0.9393897470121618,-0.3428511385549515,0.025929413735866547,-0.1423962116241455,0.2962355613708496
102.550001528,pos,-705.0702423580866,-3592.8640813297548,695.2827761761725,0.0,0.0,0.0,0.0,0.0,0.0,0.0,0.0
102.600001528,speed,0.0,0.0,0.0,0.016096358741273686,0.0,0.0,0.0,0.0,0.0,0.0,0.0
102.600001528,imu,0.0,0.0,0.0,0.0,0.0,-0.0,-0.9396169468276308,-0.3422279842945655,0.02564001828432083,-0.14561215043067932,0.2690078914165497
102.600001528,pos,-703.6464162623238,-3592.4363237024145,695.2827145740308,0.0,0.0,0.0,0.0,0.0,0.0,0.0,0.0
102.650001529,speed,0.0,0.0,0.0,0.018464975049372452,0.0,0.0,0.0,0.0,0.0,0.0,0.0
102.650001529,imu,0.0,0.0,0.0,0.0,0.0,-0.0,-0.9398597768761727,-0.3415605360844117,0.027130821719765663,-0.08333797752857208,0.16311857104301453
102.650001529,pos,-704.2369021551561,-3592.335211662347,695.2826499624175,0.0,0.0,0.0,0.0,0.0,0.0,0.0,0.0
102.70000153,speed,0.0,0.0,0.0,0.015796392182300344,0.0,0.0,0.0,0.0,0.0,0.0,0.0
102.70000153,imu,0.0,0.0,0.0,0.0,0.0,-0.0,-0.9400936798988488,-0.3409162258007688,0.028252648189663887,-0.18085795640945435,0.34336578845977783
102.70000153,pos,-703.7838251372759,-3592.542064191051,695.2825629418513,0.0,0.0,0.0,0.0,0.0,0.0,0.0,0.0
102.750001531,speed,0.0,0.0,0.0,0.015898343633842887,0.0,0.0,0.0,0.0,0.0,0.0,0.0
102.750001531,imu,0.0,0.0,0.0,0.0,0.0,-0.0,-0.9403247073846204,-0.3402784810739991,0.027362044900655746,-0.1149258241057396,0.2939794361591339
102.750001531,pos,-704.2103967571419,-3593.5068543605016,695.282510451153,0.0,0.0,0.0,0.0,0.0,0.0,0.0,0.0
102.750001531,speed,0.0,0.0,0.0,0.016954961592621238,0.0,0.0,0.0,0.0,0.0,0.0,0.0
102.800001531,pos,-703.5814923617727,-3592.5828483507557,695.2824361386106,0.0,0.0,0.0,0.0,0.0,0.0,0.0,0.0
102.800001531,imu,0.0,0.0,0.0,0.0,0.0,-0.0,-0.9405528729116911,-0.3396473071548842,0.027900541201233864,-0.16211310029029846,0.3073253631591797
102.850001532,speed,0.0,0.0,0.0,0.017059397193972176,0.0,0.0,0.0,0.0,0.0,0.0,0.0
102.850001532,imu,0.0,0.0,0.0,0.0,0.0,-0.0,-0.9407864342324879,-0.3389998306255047,0.026648767292499542,-0.10924874991178513,0.19368723034858704
102.850001532,pos,-704.0301315617012,-3592.751046109231,695.2823785806139,0.0,0.0,0.0,0.0,0.0,0.0,0.0,0.0
102.900001533,pos,-704.4714957251105,-3593.3699667019723,695.2823490063885,0.0,0.0,0.0,0.0,0.0,0.0,0.0,0.0
102.900001533,imu,0.0,0.0,0.0,0.0,0.0,-0.0,-0.9410143868762503,-0.33836655226531287,0.02587779611349106,-0.1588502675294876,0.33570268750190735
102.900001533,speed,0.0,0.0,0.0,0.01661203156251137,0.0,0.0,0.0,0.0,0.0,0.0,0.0
102.950001534,speed,0.0,0.0,0.0,0.015826279621746035,0.0,0.0,0.0,0.0,0.0,0.0,0.0
102.950001534,pos,-704.2258929230684,-3593.317524058561,695.2822206514475,0.0,0.0,0.0,0.0,0.0,0.0,0.0,0.0
102.950001534,imu,0.0,0.0,0.0,0.0,0.0,-0.0,-0.9412444093885001,-0.33772616391818644,0.02756197191774845,-0.09401815384626389,0.2561039924621582
103.000001534,imu,0.0,0.0,0.0,0.0,0.0,-0.0,-0.9414797020532341,-0.33706968214562644,0.027432391420006752,-0.1675034910440445,0.25154978036880493
103.000001534,speed,0.0,0.0,0.0,0.018009683626919612,0.0,0.0,0.0,0.0,0.0,0.0,0.0
103.000001534,pos,-703.9129264386443,-3593.3996968962747,695.282135055817,0.0,0.0,0.0,0.0,0.0,0.0,0.0,0.0
103.000001534,speed,0.0,0.0,0.0,0.01706135633834456,0.0,0.0,0.0,0.0,0.0,0.0,0.0
103.050001535,imu,0.0,0.0,0.0,0.0,0.0,-0.0,-0.941708120106497,-0.336430998163795,0.02747286669909954,-0.1524229645729065,0.3130941390991211
103.050001535,pos,-703.5127074690098,-3592.83483721358,695.2820700941106,0.0,0.0,0.0,0.0,0.0,0.0,0.0,0.0
103.100001536,speed,0.0,0.0,0.0,0.016241008162842893,0.0,0.0,0.0,0.0,0.0,0.0,0.0
103.100001536,pos,-704.227480177204,-3593.2797676281457,695.2820099659136,0.0,0.0,0.0,0.0,0.0,0.0,0.0,0.0
103.100001536,imu,0.0,0.0,0.0,0.0,0.0,-0.0,-0.941936905475572,-0.3357899136411091,0.028583042323589325,-0.08668452501296997,0.264707088470459
103.150001537,speed,0.0,0.0,0.0,0.016111462292517285,0.0,0.0,0.0,0.0,0.0,0.0,0.0
103.150001537,pos,-704.806032215758,-3592.4000383961393,695.2819506411706,0.0,0.0,0.0,0.0,0.0,0.0,0.0,0.0
103.150001537,imu,0.0,0.0,0.0,0.0,0.0,-0.0,-0.9421632567565331,-0.3351542892727513,0.027122588828206062,-0.16847282648086548,0.3013313114643097
103.200001537,speed,0.0,0.0,0.0,0.01852888527252601,0.0,0.0,0.0,0.0,0.0,0.0,0.0
103.200001537,imu,0.0,0.0,0.0,0.0,0.0,-0.0,-0.9423906944580893,-0.3345142433421933,0.026526374742388725,-0.10967118293046951,0.2449473738670349
103.200001537,pos,-704.4919325255873,-3593.6170219767628,695.2818580329265,0.0,0.0,0.0,0.0,0.0,0.0,0.0,0.0
103.250001538,speed,0.0,0.0,0.0,0.017722502490559254,0.0,0.0,0.0,0.0,0.0,0.0,0.0
103.250001538,imu,0.0,0.0,0.0,0.0,0.0,-0.0,-0.9426166625255097,-0.33387696465804484,0.02669588476419449,-0.1500445008277893,0.3125932812690735
103.250001538,pos,-705.1876838377325,-3592.980498174934,695.2817300475526,0.0,0.0,0.0,0.0,0.0,0.0,0.0,0.0
103.300001539,speed,0.0,0.0,0.0,0.016512109066760823,0.0,0.0,0.0,0.0,0.0,0.0,0.0
103.300001539,imu,0.0,0.0,0.0,0.0,0.0,-0.0,-0.9428401339110701,-0.3332453778922602,0.02587999776005745,-0.11751381307840347,0.2401704341173172
103.300001539,pos,-702.6049551272656,-3592.7850468445527,695.2816723415986,0.0,0.0,0.0,0.0,0.0,0.0,0.0,0.0
103.35000154,speed,0.0,0.0,0.0,0.01622111344238714,0.0,0.0,0.0,0.0,0.0,0.0,0.0
103.35000154,pos,-703.619237769573,-3592.2583230463465,695.2816456602781,0.0,0.0,0.0,0.0,0.0,0.0,0.0,0.0
103.35000154,imu,0.0,0.0,0.0,0.0,0.0,-0.0,-0.9430665127171711,-0.3326041980965872,0.024905644357204437,-0.15110445022583008,0.31397563219070435
103.40000154,speed,0.0,0.0,0.0,0.017778348421939302,0.0,0.0,0.0,0.0,0.0,0.0,0.0
103.40000154,imu,0.0,0.0,0.0,0.0,0.0,-0.0,-0.9432923763419407,-0.33196308941684244,0.027318734675645828,-0.09900206327438354,0.2510932981967926
103.40000154,pos,-705.106052159648,-3593.394292723778,695.2815598942029,0.0,0.0,0.0,0.0,0.0,0.0,0.0,0.0
103.40000154,speed,0.0,0.0,0.0,0.016997159394127655,0.0,0.0,0.0,0.0,0.0,0.0,0.0
103.450001541,pos,-703.3828554807029,-3593.4647149823186,695.2814651152784,0.0,0.0,0.0,0.0,0.0,0.0,0.0,0.0
103.450001541,imu,0.0,0.0,0.0,0.0,0.0,-0.0,-0.9435159082787353,-0.331327226205383,0.02806064672768116,-0.16297303140163422,0.2810446619987488
103.500001542,speed,0.0,0.0,0.0,0.017273240536397123,0.0,0.0,0.0,0.0,0.0,0.0,0.0
103.500001542,pos,-704.2506488873304,-3592.038894248085,695.281402525386,0.0,0.0,0.0,0.0,0.0,0.0,0.0,0.0
103.500001542,imu,0.0,0.0,0.0,0.0,0.0,-0.0,-0.9437405884349066,-0.33068671237371505,0.029720492660999298,-0.11851341277360916,0.28873011469841003
103.550001543,pos,-703.6994258454731,-3592.6692931164785,695.2813780904344,0.0,0.0,0.0,0.0,0.0,0.0,0.0,0.0
103.550001543,imu,0.0,0.0,0.0,0.0,0.0,-0.0,-0.9439667222960211,-0.33004064476622674,0.02815566398203373,-0.11536428332328796,0.24048593640327454
103.550001543,speed,0.0,0.0,0.0,0.01691488232755397,0.0,0.0,0.0,0.0,0.0,0.0,0.0
103.600001543,speed,0.0,0.0,0.0,0.017533603336279138,0.0,0.0,0.0,0.0,0.0,0.0,0.0
103.600001543,pos,-704.0984509639247,-3591.762757608683,695.2812571213512,0.0,0.0,0.0,0.0,0.0,0.0,0.0,0.0
103.600001543,imu,0.0,0.0,0.0,0.0,0.0,-0.0,-0.9441908431853461,-0.329398924778065,0.0285642072558403,-0.1623859703540802,0.32841867208480835
103.650001544,pos,-703.0788962412504,-3594.0763865906406,695.2811510178321,0.0,0.0,0.0,0.0,0.0,0.0,0.0,0.0
103.650001544,imu,0.0,0.0,0.0,0.0,0.0,-0.0,-0.9444126466473174,-0.3287624565740578,0.028240704908967018,-0.11993049830198288,0.2643498182296753
103.650001544,speed,0.0,0.0,0.0,0.016161401743161694,0.0,0.0,0.0,0.0,0.0,0.0,0.0
103.700001545,speed,0.0,0.0,0.0,0.018223378243551545,0.0,0.0,0.0,0.0,0.0,0.0,0.0
103.700001545,imu,0.0,0.0,0.0,0.0,0.0,-0.0,-0.944634959845126,-0.3281231363960749,0.02645072527229786,-0.12099669873714447,0.26379960775375366
103.700001545,pos,-703.8770227135966,-3592.9240336282896,695.2810876854301,0.0,0.0,0.0,0.0,0.0,0.0,0.0,0.0
103.750001545,speed,0.0,0.0,0.0,0.018042432800484978,0.0,0.0,0.0,0.0,0.0,0.0,0.0
103.750001545,imu,0.0,0.0,0.0,0.0,0.0,-0.0,-0.9448569964114439,-0.32748321534445785,0.026406489312648773,-0.14309144020080566,0.2944360673427582
103.750001545,pos,-705.3449494890066,-3593.44379574887,695.2810370682905,0.0,0.0,0.0,0.0,0.0,0.0,0.0,0.0
103.800001546,speed,0.0,0.0,0.0,0.017670497732986908,0.0,0.0,0.0,0.0,0.0,0.0,0.0
103.800001546,imu,0.0,0.0,0.0,0.0,0.0,-0.0,-0.945075248632919,-0.32685283297139445,0.026853766292333603,-0.1125081479549408,0.26767000555992126
103.800001546,pos,-704.8651299622255,-3592.784069742907,695.2810001631838,0.0,0.0,0.0,0.0,0.0,0.0,0.0,0.0
103.850001547,imu,0.0,0.0,0.0,0.0,0.0,-0.0,-0.9453075459586012,-0.3261803849923032,0.03660370036959648,-0.14509108662605286,0.21432726085186005
103.850001547,speed,0.0,0.0,0.0,0.021304990597308986,0.0,0.0,0.0,0.0,0.0,0.0,0.0
103.850001547,pos,-704.7058496008801,-3592.240864163565,695.2809789547541,0.0,0.0,0.0,0.0,0.0,0.0,0.0,0.0
103.850001547,speed,0.0,0.0,0.0,0.026382544218108497,0.0,0.0,0.0,0.0,0.0,0.0,0.0
103.900001548,pos,-704.0932145521791,-3592.682023439564,695.2810312142433,0.0,0.0,0.0,0.0,0.0,0.0,0.0,0.0
103.900001548,imu,0.0,0.0,0.0,0.0,0.0,-0.0,-0.9456164021695616,-0.3252839066844438,0.042924992740154266,-0.001461312873288989,-0.18329192698001862
103.950001548,speed,0.0,0.0,0.0,0.022471639311661625,0.0,0.0,0.0,0.0,0.0,0.0,0.0
103.950001548,pos,-704.3440323569315,-3592.288397313437,695.281186881047,0.0,0.0,0.0,0.0,0.0,0.0,0.0,0.0
103.950001548,imu,0.0,0.0,0.0,0.0,0.0,-0.0,-0.9459111049478236,-0.32442592611625154,0.03490404412150383,-0.15014329552650452,0.3652808368206024
103.950001548,speed,0.0,0.0,0.0,0.019554511317010446,0.0,0.0,0.0,0.0,0.0,0.0,0.0
104.000001549,pos,-704.4871449064993,-3593.245885238324,695.2812534131544,0.0,0.0,0.0,0.0,0.0,0.0,0.0,0.0
104.000001549,imu,0.0,0.0,0.0,0.0,0.0,-0.0,-0.9461794914686504,-0.32364234878044945,0.03283156454563141,-0.15892034769058228,0.4568203389644623
104.000001549,speed,0.0,0.0,0.0,0.018589061581364367,0.0,0.0,0.0,0.0,0.0,0.0,0.0
104.05000155,imu,0.0,0.0,0.0,0.0,0.0,-0.0,-0.9464196682187563,-0.3229393311578804,0.03131810203194618,-0.16608984768390656,0.40163084864616394
104.05000155,pos,-704.3514563014055,-3593.658272508161,695.2811623049179,0.0,0.0,0.0,0.0,0.0,0.0,0.0,0.0
104.100001551,speed,0.0,0.0,0.0,-0.0010878665693310758,0.0,0.0,0.0,0.0,0.0,0.0,0.0
104.100001551,imu,0.0,0.0,0.0,0.0,0.0,-0.0,-0.9464437649359945,-0.3228687036765566,0.001663540373556316,-0.4430885910987854,1.5495219230651855
104.100001551,pos,-704.480671396729,-3593.2423140347637,695.2807661156971,0.0,0.0,0.0,0.0,0.0,0.0,0.0,0.0
104.150001551,pos,-704.4256229750415,-3593.084997937621,695.2801539803947,0.0,0.0,0.0,0.0,0.0,0.0,0.0,0.0
104.150001551,imu,0.0,0.0,0.0,0.0,0.0,-0.0,-0.9464832475182202,-0.322752942925953,0.017135070636868477,-0.06744382530450821,0.06242629140615463
104.150001551,speed,0.0,0.0,0.0,0.008488325306144393,0.0,0.0,0.0,0.0,0.0,0.0,0.0
104.200001552,speed,0.0,0.0,0.0,0.015891651308576178,0.0,0.0,0.0,0.0,0.0,0.0,0.0
104.200001552,imu,0.0,0.0,0.0,0.0,0.0,-0.0,-0.9466941965714462,-0.3221336650801092,0.028128331527113914,0.11040952056646347,-0.7418884038925171
104.200001552,pos,-703.361674050794,-3591.637148222661,695.2797966733788,0.0,0.0,0.0,0.0,0.0,0.0,0.0,0.0
104.250001553,pos,-703.7355871347178,-3591.3769650199406,695.2796331474314,0.0,0.0,0.0,0.0,0.0,0.0,0.0,0.0
104.250001553,speed,0.0,0.0,0.0,0.018964384853820383,0.0,0.0,0.0,0.0,0.0,0.0,0.0
104.250001553,imu,0.0,0.0,0.0,0.0,0.0,-0.0,-0.9469287308043819,-0.32144358568371273,0.029163869097828865,-0.0920286700129509,0.20691946148872375
104.250001553,speed,0.0,0.0,0.0,0.017246073708856256,0.0,0.0,0.0,0.0,0.0,0.0,0.0
104.300001554,imu,0.0,0.0,0.0,0.0,0.0,-0.0,-0.9471676562109624,-0.3207388829372456,0.030621731653809547,-0.12705962359905243,0.25298115611076355
104.300001554,pos,-703.8104457866395,-3592.2016854762555,695.2795721700677,0.0,0.0,0.0,0.0,0.0,0.0,0.0,0.0
104.300001554,pos,-704.032835120912,-3593.574088718652,695.2795764667067,0.0,0.0,0.0,0.0,0.0,0.0,0.0,0.0
104.300001554,imu,0.0,0.0,0.0,0.0,0.0,-0.0,-0.9474032339662488,-0.32004236011861503,0.030262921005487442,-0.10827632993459702,0.29466259479522705
104.350001554,speed,0.0,0.0,0.0,0.018625542682078673,0.0,0.0,0.0,0.0,0.0,0.0,0.0
104.400001555,speed,0.0,0.0,0.0,0.01782298920889856,0.0,0.0,0.0,0.0,0.0,0.0,0.0
104.400001555,imu,0.0,0.0,0.0,0.0,0.0,-0.0,-0.9476275635316483,-0.319377520866876,0.026829537004232407,-0.16060616075992584,0.3286862373352051
104.400001555,pos,-704.3442033952273,-3593.1750712487883,695.279575048264,0.0,0.0,0.0,0.0,0.0,0.0,0.0,0.0
104.450001556,imu,0.0,0.0,0.0,0.0,0.0,-0.0,-0.9478762714110163,-0.3186386261832506,0.03355999290943146,-0.07530949264764786,0.11907006800174713
104.450001556,speed,0.0,0.0,0.0,0.02131967458986041,0.0,0.0,0.0,0.0,0.0,0.0,0.0
104.450001556,pos,-704.9874903609701,-3592.739490113978,695.2795968793016,0.0,0.0,0.0,0.0,0.0,0.0,0.0,0.0
104.450001556,speed,0.0,0.0,0.0,0.019231519829354674,0.0,0.0,0.0,0.0,0.0,0.0,0.0
104.500001557,imu,0.0,0.0,0.0,0.0,0.0,-0.0,-0.9481378176957106,-0.3178595266076124,0.031509771943092346,-0.10391566902399063,0.1738176792860031
104.500001557,pos,-705.3259501011944,-3593.1613476688844,695.2796048077905,0.0,0.0,0.0,0.0,0.0,0.0,0.0,0.0
104.550001557,speed,0.0,0.0,0.0,0.017626161312922776,0.0,0.0,0.0,0.0,0.0,0.0,0.0
104.550001557,pos,-703.2629855189329,-3592.353496595239,695.279697136453,0.0,0.0,0.0,0.0,0.0,0.0,0.0,0.0
104.550001557,imu,0.0,0.0,0.0,0.0,0.0,-0.0,-0.9483470020902046,-0.31723487139109013,0.026325758546590805,-0.20719373226165771,0.6759831309318542
104.550001557,speed,0.0,0.0,0.0,0.01909134786419721,0.0,0.0,0.0,0.0,0.0,0.0,0.0
104.600001558,pos,-704.2501978824952,-3592.98637075379,695.2797232151852,0.0,0.0,0.0,0.0,0.0,0.0,0.0,0.0
104.600001558,imu,0.0,0.0,0.0,0.0,0.0,-0.0,-0.9485822671153968,-0.3165306975858961,0.028544608503580093,-0.06843256205320358,0.006636936217546463
104.650001559,speed,0.0,0.0,0.0,0.019170300994723558,0.0,0.0,0.0,0.0,0.0,0.0,0.0
104.650001559,imu,0.0,0.0,0.0,0.0,0.0,-0.0,-0.9488091025935951,-0.3158501018450631,0.028223630040884018,-0.11554016172885895,0.3233147859573364
104.650001559,pos,-704.7032043781329,-3592.473664046371,695.2797256933478,0.0,0.0,0.0,0.0,0.0,0.0,0.0,0.0
104.70000156,speed,0.0,0.0,0.0,0.017141161759929475,0.0,0.0,0.0,0.0,0.0,0.0,0.0
104.70000156,imu,0.0,0.0,0.0,0.0,0.0,-0.0,-0.9490289121751403,-0.31518902876792826,0.02661544643342495,-0.15871964395046234,0.3178326487541199
104.70000156,pos,-704.7691380448686,-3591.4673776399914,695.2796274806697,0.0,0.0,0.0,0.0,0.0,0.0,0.0,0.0
104.70000156,imu,0.0,0.0,0.0,0.0,0.0,-0.0,-0.9492394870466951,-0.3145542818518405,0.027118975296616554,-0.12375284731388092,0.32074135541915894
104.70000156,pos,-704.6015851125838,-3593.919415858193,695.2795005872267,0.0,0.0,0.0,0.0,0.0,0.0,0.0,0.0
104.75000156,speed,0.0,0.0,0.0,0.017258858443525732,0.0,0.0,0.0,0.0,0.0,0.0,0.0
104.75000156,speed,0.0,0.0,0.0,0.015631370688071196,0.0,0.0,0.0,0.0,0.0,0.0,0.0
104.800001561,imu,0.0,0.0,0.0,0.0,0.0,-0.0,-0.9494481404801205,-0.3139239215778901,0.025056222453713417,-0.12016674131155014,0.25008460879325867
104.800001561,pos,-704.758116239044,-3592.235900651863,695.2794471460941,0.0,0.0,0.0,0.0,0.0,0.0,0.0,0.0
104.850001562,speed,0.0,0.0,0.0,0.0153093058305856,0.0,0.0,0.0,0.0,0.0,0.0,0.0
104.850001562,imu,0.0,0.0,0.0,0.0,0.0,-0.0,-0.9496575704236957,-0.3132898002440606,0.025094076991081238,-0.10888518393039703,0.28729134798049927
104.850001562,pos,-704.1358848636905,-3591.7060957501612,695.2793607761892,0.0,0.0,0.0,0.0,0.0,0.0,0.0,0.0
104.900001563,speed,0.0,0.0,0.0,0.016677877501367254,0.0,0.0,0.0,0.0,0.0,0.0,0.0
104.900001563,pos,-704.4915064009251,-3593.1860856039234,695.2793281688971,0.0,0.0,0.0,0.0,0.0,0.0,0.0,0.0
104.900001563,imu,0.0,0.0,0.0,0.0,0.0,-0.0,-0.9498664277618688,-0.31265599212378214,0.02704497054219246,-0.16046485304832458,0.2729657292366028
104.950001563,speed,0.0,0.0,0.0,0.016279114420445145,0.0,0.0,0.0,0.0,0.0,0.0,0.0
104.950001563,imu,0.0,0.0,0.0,0.0,0.0,-0.0,-0.9500746389163104,-0.3120227243135384,0.02564646676182747,-0.08787911385297775,0.2778812348842621
104.950001563,pos,-704.2406243586211,-3592.5334249870784,695.2792334068704,0.0,0.0,0.0,0.0,0.0,0.0,0.0,0.0
105.000001564,speed,0.0,0.0,0.0,0.022360863152811754,0.0,0.0,0.0,0.0,0.0,0.0,0.0
105.000001564,imu,0.0,0.0,0.0,0.0,0.0,-0.0,-0.9503217680190605,-0.311269235918243,0.033784426748752594,-0.05973142012953758,0.0006053585093468428
105.000001564,pos,-704.3539580765706,-3592.121516935568,695.2793001995958,0.0,0.0,0.0,0.0,0.0,0.0,0.0,0.0
105.050001565,speed,0.0,0.0,0.0,0.013531230169686331,0.0,0.0,0.0,0.0,0.0,0.0,0.0
105.050001565,imu,0.0,0.0,0.0,0.0,0.0,-0.0,-0.9505582305990753,-0.310546373735639,0.02329837903380394,-0.15793290734291077,0.372016042470932
105.050001565,pos,-703.910390143406,-3592.750450225912,695.2793005113267,0.0,0.0,0.0,0.0,0.0,0.0,0.0,0.0
105.100001566,speed,0.0,0.0,0.0,0.019711599523975016,0.0,0.0,0.0,0.0,0.0,0.0,0.0
105.100001566,imu,0.0,0.0,0.0,0.0,0.0,-0.0,-0.9507950297418838,-0.30982061167412717,0.03369813784956932,-0.09900855273008347,0.24126845598220825
105.100001566,pos,-703.9118449323244,-3592.619035106548,695.2792906371019,0.0,0.0,0.0,0.0,0.0,0.0,0.0,0.0
105.150001566,speed,0.0,0.0,0.0,0.01931216395300332,0.0,0.0,0.0,0.0,0.0,0.0,0.0
105.150001566,imu,0.0,0.0,0.0,0.0,0.0,-0.0,-0.9510435808865916,-0.3090568026340938,0.03095775842666626,-0.11069157719612122,0.20633086562156677
105.150001566,pos,-704.5092248280488,-3592.535317073418,695.2792104241335,0.0,0.0,0.0,0.0,0.0,0.0,0.0,0.0
105.200001567,speed,0.0,0.0,0.0,0.016174593964006855,0.0,0.0,0.0,0.0,0.0,0.0,0.0
105.200001567,pos,-704.7664222544072,-3592.5841805470463,695.2791420673418,0.0,0.0,0.0,0.0,0.0,0.0,0.0,0.0
105.200001567,imu,0.0,0.0,0.0,0.0,0.0,-0.0,-0.9512558632513772,-0.30840279283734945,0.027409344911575317,-0.18492306768894196,0.5988102555274963
105.250001568,speed,0.0,0.0,0.0,0.01915188733903502,0.0,0.0,0.0,0.0,0.0,0.0,0.0
105.250001568,pos,-705.2489132319914,-3592.9971744311138,695.2791530334771,0.0,0.0,0.0,0.0,0.0,0.0,0.0,0.0
105.250001568,imu,0.0,0.0,0.0,0.0,0.0,-0.0,-0.9515014417238798,-0.30764428549442946,0.031290341168642044,-0.06057082489132881,-0.053412966430187225
105.300001569,imu,0.0,0.0,0.0,0.0,0.0,-0.0,-0.9517440740030512,-0.30689284383979165,0.03307373449206352,-0.1156548261642456,0.3001765012741089
105.300001569,speed,0.0,0.0,0.0,0.019798602225084776,0.0,0.0,0.0,0.0,0.0,0.0,0.0
105.300001569,pos,-704.901367380119,-3592.4859367133918,695.2791491723096,0.0,0.0,0.0,0.0,0.0,0.0,0.0,0.0
105.350001569,speed,0.0,0.0,0.0,0.018367294942646224,0.0,0.0,0.0,0.0,0.0,0.0,0.0
105.350001569,imu,0.0,0.0,0.0,0.0,0.0,-0.0,-0.951973557798616,-0.3061802496116383,0.030099045485258102,-0.13247814774513245,0.3372924029827118
105.350001569,pos,-704.6195351838285,-3592.0669474188117,695.2790897161781,0.0,0.0,0.0,0.0,0.0,0.0,0.0,0.0
105.40000157,speed,0.0,0.0,0.0,0.01867077563766353,0.0,0.0,0.0,0.0,0.0,0.0,0.0
105.40000157,imu,0.0,0.0,0.0,0.0,0.0,-0.0,-0.9521912917305753,-0.3055024450842556,0.028660351410508156,-0.14099684357643127,0.4045555591583252
105.40000157,pos,-704.6323088781885,-3592.505092899099,695.2789667458219,0.0,0.0,0.0,0.0,0.0,0.0,0.0,0.0
105.450001571,pos,-704.5359165094959,-3593.2266101276505,695.2788089389182,0.0,0.0,0.0,0.0,0.0,0.0,0.0,0.0
105.450001571,imu,0.0,0.0,0.0,0.0,0.0,-0.0,-0.952391317376284,-0.30487830127161614,0.02418563887476921,-0.1750100702047348,0.3335847854614258
105.450001571,speed,0.0,0.0,0.0,0.015351280791050805,0.0,0.0,0.0,0.0,0.0,0.0,0.0
105.500001572,imu,0.0,0.0,0.0,0.0,0.0,-0.0,-0.9526014516108953,-0.3042210945822383,0.026424573734402657,-0.07023197412490845,0.238901749253273
105.500001572,speed,0.0,0.0,0.0,0.01673034692873792,0.0,0.0,0.0,0.0,0.0,0.0,0.0
105.500001572,pos,-704.2013933996604,-3592.6306205658643,695.278718908263,0.0,0.0,0.0,0.0,0.0,0.0,0.0,0.0
105.550001572,speed,0.0,0.0,0.0,0.017063662365164805,0.0,0.0,0.0,0.0,0.0,0.0,0.0
105.550001572,imu,0.0,0.0,0.0,0.0,0.0,-0.0,-0.9528151852621449,-0.30355102163205505,0.027740567922592163,-0.11328382045030594,0.23291002213954926
105.550001572,pos,-703.5582133281602,-3592.206816676989,695.2785341088447,0.0,0.0,0.0,0.0,0.0,0.0,0.0,0.0
105.600001573,speed,0.0,0.0,0.0,0.016078850033692204,0.0,0.0,0.0,0.0,0.0,0.0,0.0
105.600001573,pos,-704.4881431184252,-3592.8629097855155,695.2783910907465,0.0,0.0,0.0,0.0,0.0,0.0,0.0,0.0
105.600001573,imu,0.0,0.0,0.0,0.0,0.0,-0.0,-0.9530228148421932,-0.30289852160461733,0.026447296142578125,-0.14821819961071014,0.3325788974761963
105.650001574,speed,0.0,0.0,0.0,0.015979571424155924,0.0,0.0,0.0,0.0,0.0,0.0,0.0
105.650001574,imu,0.0,0.0,0.0,0.0,0.0,-0.0,-0.9532279798517649,-0.30225224304829135,0.027126729488372803,-0.09096864610910416,0.2533450424671173
105.650001574,pos,-704.3142240947013,-3592.1299504941016,695.2783218828381,0.0,0.0,0.0,0.0,0.0,0.0,0.0,0.0
105.700001575,speed,0.0,0.0,0.0,0.01679314557337639,0.0,0.0,0.0,0.0,0.0,0.0,0.0
105.700001575,imu,0.0,0.0,0.0,0.0,0.0,-0.0,-0.9534345042908646,-0.30160014261872164,0.02727167308330536,-0.1515241414308548,0.3046167194843292
105.700001575,pos,-704.2201605751886,-3592.425060463758,695.2782031088072,0.0,0.0,0.0,0.0,0.0,0.0,0.0,0.0
105.750001575,speed,0.0,0.0,0.0,0.017155295770086187,0.0,0.0,0.0,0.0,0.0,0.0,0.0
105.750001575,pos,-704.3812134035927,-3591.9822238282572,695.2780711043401,0.0,0.0,0.0,0.0,0.0,0.0,0.0,0.0
105.750001575,imu,0.0,0.0,0.0,0.0,0.0,-0.0,-0.9536367079661878,-0.3009601787934939,0.026806050911545753,-0.09023193269968033,0.2756347060203552
105.800001576,speed,0.0,0.0,0.0,0.017680080164283685,0.0,0.0,0.0,0.0,0.0,0.0,0.0
105.800001576,pos,-704.312651860959,-3592.0681226854394,695.2779801933834,0.0,0.0,0.0,0.0,0.0,0.0,0.0,0.0
105.800001576,imu,0.0,0.0,0.0,0.0,0.0,-0.0,-0.9538401289144204,-0.3003148489044822,0.02671799622476101,-0.12853609025478363,0.2735130786895752
105.850001577,speed,0.0,0.0,0.0,0.015167673320947483,0.0,0.0,0.0,0.0,0.0,0.0,0.0
105.850001577,pos,-705.0952723779116,-3591.903920580467,695.2779269640791,0.0,0.0,0.0,0.0,0.0,0.0,0.0,0.0
105.850001577,imu,0.0,0.0,0.0,0.0,0.0,-0.0,-0.9540421129055248,-0.2996725659828774,0.026081519201397896,-0.1370069682598114,0.29078757762908936
105.900001578,speed,0.0,0.0,0.0,0.017442904268455944,0.0,0.0,0.0,0.0,0.0,0.0,0.0
105.900001578,pos,-704.073092074112,-3592.7268564399405,695.2778294481827,0.0,0.0,0.0,0.0,0.0,0.0,0.0,0.0
105.900001578,imu,0.0,0.0,0.0,0.0,0.0,-0.0,-0.954245803211474,-0.2990233219220349,0.026253757998347282,-0.0836566835641861,0.28255200386047363
105.900001578,imu,0.0,0.0,0.0,0.0,0.0,-0.0,-0.954447344369371,-0.2983794008075212,0.026965992525219917,-0.1424616128206253,0.26264163851737976
105.950001578,pos,-704.9450449402592,-3592.4258543902856,695.2777813379098,0.0,0.0,0.0,0.0,0.0,0.0,0.0,0.0
105.950001578,speed,0.0,0.0,0.0,0.016633941369362394,0.0,0.0,0.0,0.0,0.0,0.0,0.0
106.000001579,speed,0.0,0.0,0.0,0.017556233178213004,0.0,0.0,0.0,0.0,0.0,0.0,0.0
106.000001579,pos,-703.6495731524489,-3591.248472064223,695.2776815178206,0.0,0.0,0.0,0.0,0.0,0.0,0.0,0.0
106.000001579,imu,0.0,0.0,0.0,0.0,0.0,-0.0,-0.9546480250972195,-0.2977367094900773,0.030093370005488396,-0.09273631870746613,0.2997632324695587
106.000001579,imu,0.0,0.0,0.0,0.0,0.0,-0.0,-0.9548511063240008,-0.2970847770449231,0.027892183512449265,-0.1416272521018982,0.2633756697177887
106.05000158,speed,0.0,0.0,0.0,0.017511058064034798,0.0,0.0,0.0,0.0,0.0,0.0,0.0
106.05000158,pos,-704.7780676299336,-3592.663639960583,695.2776186612844,0.0,0.0,0.0,0.0,0.0,0.0,0.0,0.0
106.100001581,speed,0.0,0.0,0.0,0.018116873199601362,0.0,0.0,0.0,0.0,0.0,0.0,0.0
106.100001581,imu,0.0,0.0,0.0,0.0,0.0,-0.0,-0.9550560039181837,-0.2964254195912192,0.028267651796340942,-0.0890648290514946,0.2726818919181824
106.100001581,pos,-704.0658783547665,-3593.027403953505,695.2775619691583,0.0,0.0,0.0,0.0,0.0,0.0,0.0,0.0
106.100001581,pos,-704.7225354266038,-3591.8604801856973,695.2774883479888,0.0,0.0,0.0,0.0,0.0,0.0,0.0,0.0
106.100001581,imu,0.0,0.0,0.0,0.0,0.0,-0.0,-0.9552548047424714,-0.2957841409143209,0.025974877178668976,-0.13504213094711304,0.29050254821777344
106.150001581,speed,0.0,0.0,0.0,0.017270080676178176,0.0,0.0,0.0,0.0,0.0,0.0,0.0
106.200001582,speed,0.0,0.0,0.0,0.016623728957755282,0.0,0.0,0.0,0.0,0.0,0.0,0.0
106.200001582,imu,0.0,0.0,0.0,0.0,0.0,-0.0,-0.9554596485570788,-0.29512177144220225,0.02842196263372898,-0.09754574298858643,0.2709124684333801
106.200001582,pos,-703.9629346616596,-3592.413031248782,695.2773709558871,0.0,0.0,0.0,0.0,0.0,0.0,0.0,0.0
106.250001583,speed,0.0,0.0,0.0,0.017403690662812436,0.0,0.0,0.0,0.0,0.0,0.0,0.0
106.250001583,imu,0.0,0.0,0.0,0.0,0.0,-0.0,-0.9556580655039676,-0.2944786271314345,0.026919348165392876,-0.1095069870352745,0.28441324830055237
106.250001583,pos,-703.9177879442086,-3592.598827057855,695.2772882328641,0.0,0.0,0.0,0.0,0.0,0.0,0.0,0.0
106.300001583,speed,0.0,0.0,0.0,0.017041584807477497,0.0,0.0,0.0,0.0,0.0,0.0,0.0
106.300001583,imu,0.0,0.0,0.0,0.0,0.0,-0.0,-0.9558606030466772,-0.2938205362857446,0.02585265226662159,-0.15381500124931335,0.2804456651210785
106.300001583,pos,-704.2738628996508,-3591.9707364561373,695.2772245831277,0.0,0.0,0.0,0.0,0.0,0.0,0.0,0.0
106.350001584,imu,0.0,0.0,0.0,0.0,0.0,-0.0,-0.9560626175157114,-0.2931625340813634,0.029123656451702118,-0.08019910752773285,0.2808455228805542
106.350001584,speed,0.0,0.0,0.0,0.01650478103027151,0.0,0.0,0.0,0.0,0.0,0.0,0.0
106.350001584,pos,-703.7822630943729,-3592.6558453701246,695.2771915205926,0.0,0.0,0.0,0.0,0.0,0.0,0.0,0.0
106.400001585,speed,0.0,0.0,0.0,0.01601307874665412,0.0,0.0,0.0,0.0,0.0,0.0,0.0
106.400001585,pos,-704.8197298025656,-3593.1168889488576,695.277102041766,0.0,0.0,0.0,0.0,0.0,0.0,0.0,0.0
106.400001585,imu,0.0,0.0,0.0,0.0,0.0,-0.0,-0.9562616684039423,-0.2925126006539013,0.027040384709835052,-0.11705712974071503,0.28148043155670166
106.450001586,pos,-704.0372369730783,-3592.6692296661768,695.277074789999,0.0,0.0,0.0,0.0,0.0,0.0,0.0,0.0
106.450001586,imu,0.0,0.0,0.0,0.0,0.0,-0.0,-0.9564581202910046,-0.29186960124240086,0.027029355987906456,-0.12061630934476852,0.30150288343429565
106.450001586,speed,0.0,0.0,0.0,0.016555250887125908,0.0,0.0,0.0,0.0,0.0,0.0,0.0
106.500001586,speed,0.0,0.0,0.0,0.015473031437478822,0.0,0.0,0.0,0.0,0.0,0.0,0.0
106.500001586,imu,0.0,0.0,0.0,0.0,0.0,-0.0,-0.956654625854496,-0.2912248733044522,0.028365226462483406,-0.12149970978498459,0.273385614156723
106.500001586,pos,-704.1657765083758,-3592.470458894381,695.2769453321491,0.0,0.0,0.0,0.0,0.0,0.0,0.0,0.0
106.550001587,speed,0.0,0.0,0.0,0.017203577887470803,0.0,0.0,0.0,0.0,0.0,0.0,0.0
106.550001587,imu,0.0,0.0,0.0,0.0,0.0,-0.0,-0.9568524287955928,-0.2905743097866275,0.028396321460604668,-0.11484245955944061,0.2820921838283539
106.550001587,pos,-703.7347089542947,-3592.2981500190053,695.276847541616,0.0,0.0,0.0,0.0,0.0,0.0,0.0,0.0
106.600001588,speed,0.0,0.0,0.0,0.016515277692509954,0.0,0.0,0.0,0.0,0.0,0.0,0.0
106.600001588,imu,0.0,0.0,0.0,0.0,0.0,-0.0,-0.9570472317327233,-0.28993205451058873,0.028152449056506157,-0.11358776688575745,0.28116604685783386
106.600001588,pos,-703.9970513370224,-3591.7711682895224,695.276793003266,0.0,0.0,0.0,0.0,0.0,0.0,0.0,0.0
106.650001589,speed,0.0,0.0,0.0,0.01866869154914695,0.0,0.0,0.0,0.0,0.0,0.0,0.0
106.650001589,imu,0.0,0.0,0.0,0.0,0.0,-0.0,-0.9572457418014373,-0.2892759751569704,0.0297329593449831,-0.10385539382696152,0.26419657468795776
106.650001589,pos,-704.1092280357236,-3592.5883626816794,695.2767024831198,0.0,0.0,0.0,0.0,0.0,0.0,0.0,0.0
106.700001589,speed,0.0,0.0,0.0,0.015935950247014632,0.0,0.0,0.0,0.0,0.0,0.0,0.0
106.700001589,imu,0.0,0.0,0.0,0.0,0.0,-0.0,-0.957441187204528,-0.28862843422709417,0.02678207866847515,-0.0989459902048111,0.31471648812294006
106.700001589,pos,-703.3995549745244,-3592.34120251646,695.276642450284,0.0,0.0,0.0,0.0,0.0,0.0,0.0,0.0
106.75000159,speed,0.0,0.0,0.0,0.015432316498826006,0.0,0.0,0.0,0.0,0.0,0.0,0.0
106.75000159,pos,-703.5216068654341,-3592.813035259631,695.2765819641049,0.0,0.0,0.0,0.0,0.0,0.0,0.0,0.0
106.75000159,imu,0.0,0.0,0.0,0.0,0.0,-0.0,-0.9576359885903247,-0.2879814462020624,0.025523105636239052,-0.14927135407924652,0.28176864981651306
106.800001591,pos,-703.025021965118,-3591.7678231885916,695.2764898395712,0.0,0.0,0.0,0.0,0.0,0.0,0.0,0.0
106.800001591,imu,0.0,0.0,0.0,0.0,0.0,-0.0,-0.9578281605611315,-0.2873416343589616,0.02666524611413479,-0.0634697750210762,0.24090786278247833
106.800001591,speed,0.0,0.0,0.0,0.016014221513868793,0.0,0.0,0.0,0.0,0.0,0.0,0.0
106.800001591,speed,0.0,0.0,0.0,0.01957378821699057,0.0,0.0,0.0,0.0,0.0,0.0,0.0
106.850001592,imu,0.0,0.0,0.0,0.0,0.0,-0.0,-0.9580495660093902,-0.2866025629146033,0.03236192464828491,-0.10392402857542038,0.12222032248973846
106.850001592,pos,-704.5081369169878,-3592.2266933536785,695.2765500382385,0.0,0.0,0.0,0.0,0.0,0.0,0.0,0.0
106.900001592,speed,0.0,0.0,0.0,0.020700787513311027,0.0,0.0,0.0,0.0,0.0,0.0,0.0
106.900001592,imu,0.0,0.0,0.0,0.0,0.0,-0.0,-0.958278238660932,-0.28583704677473476,0.029429679736495018,-0.08070197701454163,0.23011378943920135
106.900001592,pos,-702.8811019175996,-3594.4770041469887,695.2766670545902,0.0,0.0,0.0,0.0,0.0,0.0,0.0,0.0
106.950001593,speed,0.0,0.0,0.0,0.022190668782717676,0.0,0.0,0.0,0.0,0.0,0.0,0.0
106.950001593,imu,0.0,0.0,0.0,0.0,0.0,-0.0,-0.9585251921651796,-0.28500781740981324,0.03604885935783386,-0.08987636864185333,0.15147218108177185
106.950001593,pos,-704.4216694256917,-3592.7756915900463,695.2768673344071,0.0,0.0,0.0,0.0,0.0,0.0,0.0,0.0
107.000001594,imu,0.0,0.0,0.0,0.0,0.0,-0.0,-0.9587637038681717,-0.28420443371802784,0.03452145308256149,-0.12885065376758575,0.33743196725845337
107.000001594,speed,0.0,0.0,0.0,0.021706928134321284,0.0,0.0,0.0,0.0,0.0,0.0,0.0
107.000001594,pos,-704.5347124459577,-3592.93782221601,695.2769700044269,0.0,0.0,0.0,0.0,0.0,0.0,0.0,0.0
107.050001595,speed,0.0,0.0,0.0,0.019947182237772275,0.0,0.0,0.0,0.0,0.0,0.0,0.0
107.050001595,pos,-704.4867429462319,-3591.7117677417696,695.2770127575791,0.0,0.0,0.0,0.0,0.0,0.0,0.0,0.0
107.050001595,imu,0.0,0.0,0.0,0.0,0.0,-0.0,-0.9589930282145098,-0.28342965941475556,0.03251258656382561,-0.12092901766300201,0.34466394782066345
107.100001595,speed,0.0,0.0,0.0,0.012413665407915556,0.0,0.0,0.0,0.0,0.0,0.0,0.0
107.100001595,imu,0.0,0.0,0.0,0.0,0.0,-0.0,-0.9592114825380481,-0.2826894617193217,0.020831750705838203,-0.10812091827392578,0.32405903935432434
107.100001595,pos,-704.8246967267596,-3593.0004560646726,695.2769425714832,0.0,0.0,0.0,0.0,0.0,0.0,0.0,0.0
107.150001596,speed,0.0,0.0,0.0,0.01839067389932953,0.0,0.0,0.0,0.0,0.0,0.0,0.0
107.150001596,imu,0.0,0.0,0.0,0.0,0.0,-0.0,-0.9594105412702962,-0.28201314384162524,0.03153211995959282,-0.16227835416793823,0.4082674980163574
107.150001596,pos,-703.5390258102766,-3592.367124136403,695.276794341413,0.0,0.0,0.0,0.0,0.0,0.0,0.0,0.0
107.200001597,speed,0.0,0.0,0.0,0.018714133936589963,0.0,0.0,0.0,0.0,0.0,0.0,0.0
107.200001597,imu,0.0,0.0,0.0,0.0,0.0,-0.0,-0.959617373068681,-0.2813085446707298,0.02847290225327015,-0.08093123883008957,0.2268075942993164
107.200001597,pos,-705.1879820362911,-3591.35653122907,695.2766367747845,0.0,0.0,0.0,0.0,0.0,0.0,0.0,0.0
107.250001598,speed,0.0,0.0,0.0,0.01667764175778253,0.0,0.0,0.0,0.0,0.0,0.0,0.0
107.250001598,pos,-704.9422392316928,-3592.533287482143,695.2764298270862,0.0,0.0,0.0,0.0,0.0,0.0,0.0,0.0
107.250001598,imu,0.0,0.0,0.0,0.0,0.0,-0.0,-0.9598188703788034,-0.28062027023142466,0.028203686699271202,-0.13389161229133606,0.3325403034687042
107.300001598,speed,0.0,0.0,0.0,0.017970341268930424,0.0,0.0,0.0,0.0,0.0,0.0,0.0
107.300001598,imu,0.0,0.0,0.0,0.0,0.0,-0.0,-0.9600160029649942,-0.27994512685723993,0.028123095631599426,-0.0961110070347786,0.2898252606391907
107.300001598,pos,-704.2261585208064,-3592.5134651461367,695.276208982471,0.0,0.0,0.0,0.0,0.0,0.0,0.0,0.0
107.350001599,speed,0.0,0.0,0.0,-0.0011840318406365694,0.0,0.0,0.0,0.0,0.0,0.0,0.0
107.350001599,imu,0.0,0.0,0.0,0.0,0.0,-0.0,-0.9600344222634428,-0.2798819538114194,-0.00042052919161505997,-0.4117239713668823,1.4602748155593872
107.350001599,pos,-704.4757837289092,-3592.4322374475933,695.275789606266,0.0,0.0,0.0,0.0,0.0,0.0,0.0,0.0
107.4000016,speed,0.0,0.0,0.0,0.002566809850119406,0.0,0.0,0.0,0.0,0.0,0.0,0.0
107.4000016,imu,0.0,0.0,0.0,0.0,0.0,-0.0,-0.9600494349200834,-0.2798304531490962,0.0017758405301719904,-0.0818653330206871,0.14139887690544128
107.4000016,pos,-704.5718277121637,-3592.8900386602436,695.2750593828223,0.0,0.0,0.0,0.0,0.0,0.0,0.0,0.0
107.450001601,speed,0.0,0.0,0.0,0.013928223985805318,0.0,0.0,0.0,0.0,0.0,0.0,0.0
107.450001601,imu,0.0,0.0,0.0,0.0,0.0,-0.0,-0.9601998090919874,-0.279314028684044,0.025227732956409454,0.1471136212348938,-0.5904265642166138
107.450001601,pos,-703.6853101988694,-3592.56660945311,695.2746799133001,0.0,0.0,0.0,0.0,0.0,0.0,0.0,0.0
107.450001601,speed,0.0,0.0,0.0,0.016419178425158765,0.0,0.0,0.0,0.0,0.0,0.0,0.0
107.500001601,pos,-703.2931627024839,-3591.493411123706,695.2744749761482,0.0,0.0,0.0,0.0,0.0,0.0,0.0,0.0
107.500001601,imu,0.0,0.0,0.0,0.0,0.0,-0.0,-0.9603834661180379,-0.2786818939348295,0.02748604118824005,-0.09784283488988876,0.12807582318782806
107.550001602,speed,0.0,0.0,0.0,0.01786046497450876,0.0,0.0,0.0,0.0,0.0,0.0,0.0
107.550001602,imu,0.0,0.0,0.0,0.0,0.0,-0.0,-0.9605742639426119,-0.27802353039106137,0.027738988399505615,-0.09816710650920868,0.24256344139575958
107.550001602,pos,-705.2076486278488,-3592.282968797327,695.2744468885094,0.0,0.0,0.0,0.0,0.0,0.0,0.0,0.0
107.550001602,speed,0.0,0.0,0.0,0.019475511172243214,0.0,0.0,0.0,0.0,0.0,0.0,0.0
107.550001602,pos,-703.8040314829102,-3592.682994304141,695.2744519326952,0.0,0.0,0.0,0.0,0.0,0.0,0.0,0.0
107.600001603,imu,0.0,0.0,0.0,0.0,0.0,-0.0,-0.9607655362451966,-0.27736182931953707,0.027341822162270546,-0.1050461083650589,0.28680363297462463
107.600001603,speed,0.0,0.0,0.0,0.017521643849337264,0.0,0.0,0.0,0.0,0.0,0.0,0.0
107.650001604,imu,0.0,0.0,0.0,0.0,0.0,-0.0,-0.9609497554133958,-0.27672290756447104,0.02461373805999756,-0.11270773410797119,0.2846837043762207
107.650001604,pos,-704.3038921235784,-3592.1979234873615,695.2744491817507,0.0,0.0,0.0,0.0,0.0,0.0,0.0,0.0
107.650001604,imu,0.0,0.0,0.0,0.0,0.0,-0.0,-0.9611374990032555,-0.2760701143002751,0.028909679502248764,-0.09607577323913574,0.27597329020500183
107.700001604,speed,0.0,0.0,0.0,0.016917194415159785,0.0,0.0,0.0,0.0,0.0,0.0,0.0
107.700001604,pos,-703.814834970835,-3592.741614276408,695.2744794929376,0.0,0.0,0.0,0.0,0.0,0.0,0.0,0.0
107.750001605,speed,0.0,0.0,0.0,0.016971798755549838,0.0,0.0,0.0,0.0,0.0,0.0,0.0
107.750001605,imu,0.0,0.0,0.0,0.0,0.0,-0.0,-0.9613204651560243,-0.2754323206746171,0.02475334331393242,-0.08229251950979233,0.2611156702041626
107.750001605,pos,-704.2000197782054,-3592.595696835454,695.2744856603758,0.0,0.0,0.0,0.0,0.0,0.0,0.0,0.0
107.800001606,imu,0.0,0.0,0.0,0.0,0.0,-0.0,-0.9615049080240984,-0.2747877578160462,0.02544170618057251,-0.14243602752685547,0.30038151144981384
107.800001606,speed,0.0,0.0,0.0,0.016056455733609875,0.0,0.0,0.0,0.0,0.0,0.0,0.0
107.800001606,pos,-703.7928923621059,-3592.516456194303,695.2745410645234,0.0,0.0,0.0,0.0,0.0,0.0,0.0,0.0
107.800001606,speed,0.0,0.0,0.0,0.01671431555013518,0.0,0.0,0.0,0.0,0.0,0.0,0.0
107.850001607,pos,-704.3200753816329,-3592.672323976852,695.2745359106148,0.0,0.0,0.0,0.0,0.0,0.0,0.0,0.0
107.850001607,imu,0.0,0.0,0.0,0.0,0.0,-0.0,-0.9616904219984904,-0.27413779789800113,0.026271840557456017,-0.06339593976736069,0.22851404547691345
107.850001607,speed,0.0,0.0,0.0,0.017534861130707437,0.0,0.0,0.0,0.0,0.0,0.0,0.0
107.900001607,pos,-704.4397308535001,-3592.72966706217,695.2744665064656,0.0,0.0,0.0,0.0,0.0,0.0,0.0,0.0
107.900001607,imu,0.0,0.0,0.0,0.0,0.0,-0.0,-0.9618752357931493,-0.27348863005228125,0.02684936299920082,-0.11841782182455063,0.31522423028945923
107.950001608,pos,-704.0849893388587,-3592.976006641695,695.2744784085612,0.0,0.0,0.0,0.0,0.0,0.0,0.0,0.0
107.950001608,imu,0.0,0.0,0.0,0.0,0.0,-0.0,-0.9620579851151985,-0.27284507192926266,0.029072802513837814,-0.0997898280620575,0.2357797771692276
107.950001608,speed,0.0,0.0,0.0,0.016840744970345392,0.0,0.0,0.0,0.0,0.0,0.0,0.0
108.000001609,speed,0.0,0.0,0.0,0.018421778359173385,0.0,0.0,0.0,0.0,0.0,0.0,0.0
108.000001609,pos,-704.4588516367027,-3591.9404914945576,695.2744408982587,0.0,0.0,0.0,0.0,0.0,0.0,0.0,0.0
108.000001609,imu,0.0,0.0,0.0,0.0,0.0,-0.0,-0.9622394601774501,-0.2722043740967612,0.027408283203840256,-0.09978900849819183,0.3303713798522949
108.05000161,speed,0.0,0.0,0.0,0.017437596021188464,0.0,0.0,0.0,0.0,0.0,0.0,0.0
108.05000161,imu,0.0,0.0,0.0,0.0,0.0,-0.0,-0.962420767539581,-0.2715626377256709,0.02802102454006672,-0.10215674340724945,0.25639766454696655
108.05000161,pos,-704.873512953325,-3592.293069350861,695.2743524584496,0.0,0.0,0.0,0.0,0.0,0.0,0.0,0.0
108.10000161,speed,0.0,0.0,0.0,0.01596997602261302,0.0,0.0,0.0,0.0,0.0,0.0,0.0
108.10000161,pos,-703.5570207392987,-3591.989165469339,695.2743301855498,0.0,0.0,0.0,0.0,0.0,0.0,0.0,0.0
108.10000161,imu,0.0,0.0,0.0,0.0,0.0,-0.0,-0.9626024220218201,-0.2709180265647263,0.027295028790831566,-0.1028849184513092,0.2581079602241516
108.150001611,speed,0.0,0.0,0.0,0.017681609388984724,0.0,0.0,0.0,0.0,0.0,0.0,0.0
108.150001611,pos,-704.1100422562513,-3592.4707691528415,695.2742559071639,0.0,0.0,0.0,0.0,0.0,0.0,0.0,0.0
108.150001611,imu,0.0,0.0,0.0,0.0,0.0,-0.0,-0.962788219728254,-0.27025699612128334,0.027467885985970497,-0.11345995962619781,0.2978457510471344
108.200001612,speed,0.0,0.0,0.0,0.017751924199790325,0.0,0.0,0.0,0.0,0.0,0.0,0.0
108.200001612,pos,-705.3251575521138,-3593.1387041721955,695.2741969421838,0.0,0.0,0.0,0.0,0.0,0.0,0.0,0.0
108.200001612,imu,0.0,0.0,0.0,0.0,0.0,-0.0,-0.9629700281984288,-0.26960846572672253,0.026852071285247803,-0.06560630351305008,0.25819316506385803
108.250001613,speed,0.0,0.0,0.0,0.017400940356392718,0.0,0.0,0.0,0.0,0.0,0.0,0.0
108.250001613,imu,0.0,0.0,0.0,0.0,0.0,-0.0,-0.963155696074328,-0.2689444275674374,0.026159118860960007,-0.1311279535293579,0.2883407473564148
108.250001613,pos,-703.9635178421777,-3592.2522884231266,695.2741661434325,0.0,0.0,0.0,0.0,0.0,0.0,0.0,0.0
108.300001613,imu,0.0,0.0,0.0,0.0,0.0,-0.0,-0.9633377078290938,-0.26829174544623546,0.02570013888180256,-0.08733966201543808,0.2947459816932678
108.300001613,pos,-704.350076670671,-3592.805217648647,695.2741397167446,0.0,0.0,0.0,0.0,0.0,0.0,0.0,0.0
108.300001613,speed,0.0,0.0,0.0,0.01874750746185712,0.0,0.0,0.0,0.0,0.0,0.0,0.0
108.350001614,speed,0.0,0.0,0.0,0.017100475395371066,0.0,0.0,0.0,0.0,0.0,0.0,0.0
108.350001614,imu,0.0,0.0,0.0,0.0,0.0,-0.0,-0.963518703001022,-0.2676410076337861,0.02783217467367649,-0.10957787185907364,0.25246942043304443
108.350001614,pos,-703.8717476015372,-3592.9836349059387,695.274048562176,0.0,0.0,0.0,0.0,0.0,0.0,0.0,0.0
108.350001614,pos,-703.2273991247696,-3592.5416296145204,695.2739315668123,0.0,0.0,0.0,0.0,0.0,0.0,0.0,0.0
108.400001615,speed,0.0,0.0,0.0,0.04674653462297954,0.0,0.0,0.0,0.0,0.0,0.0,0.0
108.400001615,imu,0.0,0.0,0.0,0.0,0.0,-0.0,-0.9636352572447926,-0.2672210526787933,0.01839764416217804,0.3529890775680542,0.20370498299598694
108.450001616,speed,0.0,0.0,0.0,0.031015042355944267,0.0,0.0,0.0,0.0,0.0,0.0,0.0
108.450001616,imu,0.0,0.0,0.0,0.0,0.0,-0.0,-0.9637720445412318,-0.2667272879943368,0.019598115235567093,-0.2460370659828186,0.05446980893611908
108.450001616,pos,-704.8817669794907,-3593.637828268603,695.2738962119788,0.0,0.0,0.0,0.0,0.0,0.0,0.0,0.0
108.500001616,speed,0.0,0.0,0.0,0.0340544383933372,0.0,0.0,0.0,0.0,0.0,0.0,0.0
108.500001616,pos,-704.5519085635807,-3593.2258326336,695.2737117038655,0.0,0.0,0.0,0.0,0.0,0.0,0.0,0.0
108.500001616,imu,0.0,0.0,0.0,0.0,0.0,-0.0,-0.9638815970096586,-0.26633112275156684,0.018150489777326584,-0.045572683215141296,0.26005303859710693
108.550001617,speed,0.0,0.0,0.0,0.034937149672858,0.0,0.0,0.0,0.0,0.0,0.0,0.0
108.550001617,imu,0.0,0.0,0.0,0.0,0.0,-0.0,-0.9639857239254613,-0.26595398862943237,0.015242248773574829,-0.09312009066343307,0.2806321680545807
108.550001617,pos,-704.1465445492599,-3593.837968983311,695.2735939496697,0.0,0.0,0.0,0.0,0.0,0.0,0.0,0.0
108.550001617,pos,-703.702834891555,-3593.6886174344104,695.2734681577606,0.0,0.0,0.0,0.0,0.0,0.0,0.0,0.0
108.600001618,imu,0.0,0.0,0.0,0.0,0.0,-0.0,-0.9640819146980208,-0.2656050860811934,0.013108017854392529,-0.08531308174133301,0.3061951696872711
108.600001618,speed,0.0,0.0,0.0,0.036501726640213165,0.0,0.0,0.0,0.0,0.0,0.0,0.0
108.650001619,speed,0.0,0.0,0.0,0.004861946326556127,0.0,0.0,0.0,0.0,0.0,0.0,0.0
108.650001619,imu,0.0,0.0,0.0,0.0,0.0,-0.0,-0.9641628627877837,-0.2653110891404,0.002058940939605236,-1.603348970413208,-0.05577031895518303
108.650001619,pos,-704.4755684555804,-3592.338458460037,695.2737782208974,0.0,0.0,0.0,0.0,0.0,0.0,0.0,0.0
108.700001619,pos,-704.3067091757205,-3592.5319205332303,695.2737479959578,0.0,0.0,0.0,0.0,0.0,0.0,0.0,0.0
108.700001619,speed,0.0,0.0,0.0,0.027902014312734893,0.0,0.0,0.0,0.0,0.0,0.0,0.0
108.700001619,imu,0.0,0.0,0.0,0.0,0.0,-0.0,-0.9643540217604558,-0.2646154204018245,0.028187382966279984,1.0794658660888672,0.6944125294685364
108.75000162,speed,0.0,0.0,0.0,0.029419870185915225,0.0,0.0,0.0,0.0,0.0,0.0,0.0
108.75000162,imu,0.0,0.0,0.0,0.0,0.0,-0.0,-0.9645073556097776,-0.2640559807590694,0.025368252769112587,-0.018797075375914574,0.34998446702957153
108.75000162,pos,-704.052529458783,-3591.58535908884,695.2737494001071,0.0,0.0,0.0,0.0,0.0,0.0,0.0,0.0
108.800001621,speed,0.0,0.0,0.0,0.013041286727105118,0.0,0.0,0.0,0.0,0.0,0.0,0.0
108.800001621,imu,0.0,0.0,0.0,0.0,0.0,-0.0,-0.9646861803132702,-0.2634019238969082,0.01919238455593586,-0.12514102458953857,0.19165536761283875
108.800001621,pos,-705.0375462337437,-3592.454194097277,695.2735866305245,0.0,0.0,0.0,0.0,0.0,0.0,0.0,0.0
108.850001621,speed,0.0,0.0,0.0,0.021907053989361183,0.0,0.0,0.0,0.0,0.0,0.0,0.0
108.850001621,pos,-704.7019651765183,-3591.9461679627684,695.2736127514709,0.0,0.0,0.0,0.0,0.0,0.0,0.0,0.0
108.850001621,imu,0.0,0.0,0.0,0.0,0.0,-0.0,-0.964915410285451,-0.26256094719828343,0.03673775494098663,-0.09114537388086319,0.12195640802383423
108.900001622,imu,0.0,0.0,0.0,0.0,0.0,-0.0,-0.965079107559101,-0.26195861534396836,0.021935846656560898,-0.17070651054382324,0.6093383431434631
108.900001622,pos,-704.3088895034141,-3593.3862096720786,695.2736398806737,0.0,0.0,0.0,0.0,0.0,0.0,0.0,0.0
108.900001622,speed,0.0,0.0,0.0,0.02251201801275871,0.0,0.0,0.0,0.0,0.0,0.0,0.0
108.950001623,speed,0.0,0.0,0.0,0.023175735530904726,0.0,0.0,0.0,0.0,0.0,0.0,0.0
108.950001623,pos,-704.1323474982507,-3591.9139775165495,695.2736597254689,0.0,0.0,0.0,0.0,0.0,0.0,0.0,0.0
108.950001623,imu,0.0,0.0,0.0,0.0,0.0,-0.0,-0.9652502797352922,-0.26132718471475574,0.021267037838697433,-0.0625566840171814,0.20729653537273407
109.000001624,speed,0.0,0.0,0.0,0.025997108750892742,0.0,0.0,0.0,0.0,0.0,0.0,0.0
109.000001624,imu,0.0,0.0,0.0,0.0,0.0,-0.0,-0.9654023899051021,-0.260764693863102,0.022031962871551514,-0.02602221630513668,0.20424264669418335
109.000001624,pos,-704.4167219586831,-3592.451152646134,695.2734712541653,0.0,0.0,0.0,0.0,0.0,0.0,0.0,0.0
109.050001624,speed,0.0,0.0,0.0,0.024635652747936335,0.0,0.0,0.0,0.0,0.0,0.0,0.0
109.050001624,pos,-704.622285749242,-3591.9946492868708,695.2733180341502,0.0,0.0,0.0,0.0,0.0,0.0,0.0,0.0
109.050001624,imu,0.0,0.0,0.0,0.0,0.0,-0.0,-0.9655562815153984,-0.26019428745873086,0.022046348080039024,-0.11523723602294922,0.2927715480327606
109.100001625,speed,0.0,0.0,0.0,0.02574015440878952,0.0,0.0,0.0,0.0,0.0,0.0,0.0
109.100001625,imu,0.0,0.0,0.0,0.0,0.0,-0.0,-0.9657020982812901,-0.259652570515128,0.021415624767541885,-0.10308060795068741,0.2983642816543579
109.100001625,pos,-703.8232277393093,-3592.550087674039,695.2731043620342,0.0,0.0,0.0,0.0,0.0,0.0,0.0,0.0
109.100001625,speed,0.0,0.0,0.0,0.024717486510177213,0.0,0.0,0.0,0.0,0.0,0.0,0.0
109.150001626,imu,0.0,0.0,0.0,0.0,0.0,-0.0,-0.9658479200050575,-0.25910962047346686,0.02186511643230915,-0.09452003240585327,0.2812882661819458
109.150001626,pos,-703.585326648866,-3592.9061340831167,695.2729509072093,0.0,0.0,0.0,0.0,0.0,0.0,0.0,0.0
109.200001627,speed,0.0,0.0,0.0,0.02387949380289454,0.0,0.0,0.0,0.0,0.0,0.0,0.0
109.200001627,imu,0.0,0.0,0.0,0.0,0.0,-0.0,-0.9659999091047282,-0.2585424058247638,0.024890124797821045,-0.08949822187423706,0.2387453317642212
109.200001627,pos,-703.3217752828905,-3592.506317914856,695.2728021496719,0.0,0.0,0.0,0.0,0.0,0.0,0.0,0.0
109.250001627,speed,0.0,0.0,0.0,0.022231438387907164,0.0,0.0,0.0,0.0,0.0,0.0,0.0
109.250001627,pos,-703.4764960916161,-3592.6712986324756,695.2726802681268,0.0,0.0,0.0,0.0,0.0,0.0,0.0,0.0
109.250001627,imu,0.0,0.0,0.0,0.0,0.0,-0.0,-0.9661586994287578,-0.2579483814993445,0.027612147852778435,-0.167762890458107,0.33204057812690735
109.300001628,speed,0.0,0.0,0.0,0.023571175546372346,0.0,0.0,0.0,0.0,0.0,0.0,0.0
109.300001628,imu,0.0,0.0,0.0,0.0,0.0,-0.0,-0.9663093315545556,-0.257383518801395,0.026386838406324387,-0.055327121168375015,0.25566110014915466
109.300001628,pos,-703.8719263871287,-3592.1415706909897,695.2725259136914,0.0,0.0,0.0,0.0,0.0,0.0,0.0,0.0
109.350001629,speed,0.0,0.0,0.0,0.02403901717931442,0.0,0.0,0.0,0.0,0.0,0.0,0.0
109.350001629,imu,0.0,0.0,0.0,0.0,0.0,-0.0,-0.9664562044506134,-0.2568314717454113,0.022002900019288063,-0.06443623453378677,0.25192323327064514
109.350001629,pos,-704.0979949558254,-3592.3405923091436,695.2723998016684,0.0,0.0,0.0,0.0,0.0,0.0,0.0,0.0
109.350001629,speed,0.0,0.0,0.0,0.02432259019987793,0.0,0.0,0.0,0.0,0.0,0.0,0.0
109.40000163,imu,0.0,0.0,0.0,0.0,0.0,-0.0,-0.9666036173845417,-0.25627611449200344,0.021947868168354034,-0.157358780503273,0.33768925070762634
109.40000163,pos,-704.188447213764,-3592.3010498444255,695.27230850086,0.0,0.0,0.0,0.0,0.0,0.0,0.0,0.0
109.45000163,speed,0.0,0.0,0.0,0.024724944701610834,0.0,0.0,0.0,0.0,0.0,0.0,0.0
109.45000163,pos,-704.9663421233707,-3593.4215070086484,695.2721297079142,0.0,0.0,0.0,0.0,0.0,0.0,0.0,0.0
109.45000163,imu,0.0,0.0,0.0,0.0,0.0,-0.0,-0.9667471139514572,-0.2557342715916824,0.02302408032119274,-0.05467722937464714,0.23546136915683746
109.45000163,imu,0.0,0.0,0.0,0.0,0.0,-0.0,-0.9669089220424494,-0.2551218071328058,0.025034001097083092,-0.1858990341424942,0.3473651707172394
109.45000163,pos,-704.8926843605188,-3592.4365393401918,695.2720838665318,0.0,0.0,0.0,0.0,0.0,0.0,0.0,0.0
109.500001631,speed,0.0,0.0,0.0,0.02180820364172938,0.0,0.0,0.0,0.0,0.0,0.0,0.0
109.550001632,speed,0.0,0.0,0.0,0.02005738389865953,0.0,0.0,0.0,0.0,0.0,0.0,0.0
109.550001632,imu,0.0,0.0,0.0,0.0,0.0,-0.0,-0.9670689464697768,-0.2545145433444541,0.026853282004594803,-0.10368518531322479,0.27892330288887024
109.550001632,pos,-703.3609106983608,-3591.728202962308,695.2719690621832,0.0,0.0,0.0,0.0,0.0,0.0,0.0,0.0
109.600001633,speed,0.0,0.0,0.0,0.02044159542750078,0.0,0.0,0.0,0.0,0.0,0.0,0.0
109.600001633,imu,0.0,0.0,0.0,0.0,0.0,-0.0,-0.9672293159375405,-0.25390441191715735,0.0265122689306736,-0.09293092042207718,0.2831498682498932
109.600001633,pos,-704.3980302134823,-3591.83049225168,695.2718767233582,0.0,0.0,0.0,0.0,0.0,0.0,0.0,0.0
109.650001633,speed,0.0,0.0,0.0,0.022780235586728044,0.0,0.0,0.0,0.0,0.0,0.0,0.0
109.650001633,imu,0.0,0.0,0.0,0.0,0.0,-0.0,-0.9673809661197106,-0.25332600811858097,0.022204961627721786,-0.07523501664400101,0.24806976318359375
109.650001633,pos,-704.9769474875318,-3592.786250074961,695.2717668319547,0.0,0.0,0.0,0.0,0.0,0.0,0.0,0.0
109.700001634,speed,0.0,0.0,0.0,0.019277105585126464,0.0,0.0,0.0,0.0,0.0,0.0,0.0
109.700001634,imu,0.0,0.0,0.0,0.0,0.0,-0.0,-0.9675513097362717,-0.2526746188829127,0.02811669185757637,-0.18632665276527405,0.3722386956214905
109.700001634,pos,-704.7494751312887,-3592.0834388495437,695.271698195402,0.0,0.0,0.0,0.0,0.0,0.0,0.0,0.0
109.750001635,speed,0.0,0.0,0.0,0.021445049829648153,0.0,0.0,0.0,0.0,0.0,0.0,0.0
109.750001635,pos,-704.0517746657897,-3591.7747472150645,695.2716690718327,0.0,0.0,0.0,0.0,0.0,0.0,0.0,0.0
109.750001635,imu,0.0,0.0,0.0,0.0,0.0,-0.0,-0.96773593440008,-0.2519665876079684,0.03545297309756279,-0.08779709041118622,0.19366706907749176
109.750001635,imu,0.0,0.0,0.0,0.0,0.0,-0.0,-0.9679500462808345,-0.2511428038087701,0.036491475999355316,-0.06458166986703873,0.06819624453783035
109.800001636,pos,-704.3216668573469,-3592.3533917648656,695.2717007173162,0.0,0.0,0.0,0.0,0.0,0.0,0.0,0.0
109.800001636,speed,0.0,0.0,0.0,0.02193839988635257,0.0,0.0,0.0,0.0,0.0,0.0,0.0
109.850001636,speed,0.0,0.0,0.0,0.028409332153653103,0.0,0.0,0.0,0.0,0.0,0.0,0.0
109.850001636,imu,0.0,0.0,0.0,0.0,0.0,-0.0,-0.9681892934843289,-0.25021888814059595,0.04563518241047859,-0.03191399946808815,0.06539332121610641
109.850001636,pos,-704.5530184596739,-3592.8112380808457,695.2718267618307,0.0,0.0,0.0,0.0,0.0,0.0,0.0,0.0
109.900001637,imu,0.0,0.0,0.0,0.0,0.0,-0.0,-0.9684049500445508,-0.24938294394206464,0.028606612235307693,-0.1447838991880417,0.45936843752861023
109.900001637,pos,-704.4644596955358,-3592.6526241822353,695.2718214628015,0.0,0.0,0.0,0.0,0.0,0.0,0.0,0.0
109.900001637,speed,0.0,0.0,0.0,0.0189546241402101,0.0,0.0,0.0,0.0,0.0,0.0,0.0
109.950001638,speed,0.0,0.0,0.0,0.017836207038059954,0.0,0.0,0.0,0.0,0.0,0.0,0.0
109.950001638,imu,0.0,0.0,0.0,0.0,0.0,-0.0,-0.9685802880950934,-0.2487010766233748,0.02811286970973015,-0.17761434614658356,0.6017544269561768
109.950001638,pos,-703.6954278796505,-3592.527341268509,695.2717597092183,0.0,0.0,0.0,0.0,0.0,0.0,0.0,0.0
110.000001639,speed,0.0,0.0,0.0,0.017351421437206922,0.0,0.0,0.0,0.0,0.0,0.0,0.0
110.000001639,imu,0.0,0.0,0.0,0.0,0.0,-0.0,-0.9687559738811065,-0.24801585245638819,0.027154965326189995,-0.10260868072509766,0.2796172797679901
110.000001639,pos,-704.609710951532,-3592.6270115031807,695.2716384918643,0.0,0.0,0.0,0.0,0.0,0.0,0.0,0.0
110.050001639,speed,0.0,0.0,0.0,0.018316639633633336,0.0,0.0,0.0,0.0,0.0,0.0,0.0
110.050001639,imu,0.0,0.0,0.0,0.0,0.0,-0.0,-0.9689279905414815,-0.2473429787668265,0.027746159583330154,-0.07454440742731094,0.24842113256454468
110.050001639,pos,-703.7433993320581,-3592.174996569212,695.2714807289728,0.0,0.0,0.0,0.0,0.0,0.0,0.0,0.0
110.10000164,speed,0.0,0.0,0.0,0.01828508049721646,0.0,0.0,0.0,0.0,0.0,0.0,0.0
110.10000164,pos,-704.4754341416606,-3591.765909316373,695.2713328399254,0.0,0.0,0.0,0.0,0.0,0.0,0.0,0.0
110.10000164,imu,0.0,0.0,0.0,0.0,0.0,-0.0,-0.9691014217551033,-0.2466625921217838,0.02981392852962017,-0.09834881871938705,0.23693965375423431
110.150001641,speed,0.0,0.0,0.0,0.01661114089401682,0.0,0.0,0.0,0.0,0.0,0.0,0.0
110.150001641,imu,0.0,0.0,0.0,0.0,0.0,-0.0,-0.9692698592383353,-0.2459998779920382,0.028558826074004173,-0.10223869979381561,0.3470648229122162
110.150001641,pos,-705.2120702649036,-3591.935477303058,695.2710841245769,0.0,0.0,0.0,0.0,0.0,0.0,0.0,0.0
110.200001642,imu,0.0,0.0,0.0,0.0,0.0,-0.0,-0.9694420548753122,-0.2453204073026379,0.026640040799975395,-0.12899133563041687,0.31566551327705383
110.200001642,speed,0.0,0.0,0.0,0.01672689526392034,0.0,0.0,0.0,0.0,0.0,0.0,0.0
110.200001642,pos,-703.2283118008945,-3592.8959196490828,695.270964914078,0.0,0.0,0.0,0.0,0.0,0.0,0.0,0.0
110.250001642,speed,0.0,0.0,0.0,0.016880731709794903,0.0,0.0,0.0,0.0,0.0,0.0,0.0
110.250001642,pos,-703.3396791127853,-3592.319049074458,695.2708402978981,0.0,0.0,0.0,0.0,0.0,0.0,0.0,0.0
110.250001642,imu,0.0,0.0,0.0,0.0,0.0,-0.0,-0.9696076495646407,-0.24466508926639438,0.025806451216340065,-0.07386800646781921,0.2731025815010071
110.250001642,speed,0.0,0.0,0.0,0.017395485839008323,0.0,0.0,0.0,0.0,0.0,0.0,0.0
110.300001643,imu,0.0,0.0,0.0,0.0,0.0,-0.0,-0.9697786186437928,-0.24398653819696084,0.027186261489987373,-0.13382594287395477,0.2629496455192566
110.300001643,pos,-703.9712336387374,-3591.7606118092585,695.270783838856,0.0,0.0,0.0,0.0,0.0,0.0,0.0,0.0
110.350001644,speed,0.0,0.0,0.0,0.019189696161701013,0.0,0.0,0.0,0.0,0.0,0.0,0.0
110.350001644,imu,0.0,0.0,0.0,0.0,0.0,-0.0,-0.9699618735304881,-0.24325699146627883,0.028623143211007118,-0.05031617730855942,0.19412578642368317
110.350001644,pos,-703.8413394282754,-3592.352173457353,695.2707883343141,0.0,0.0,0.0,0.0,0.0,0.0,0.0,0.0
110.400001645,speed,0.0,0.0,0.0,0.020333572602519244,0.0,0.0,0.0,0.0,0.0,0.0,0.0
110.400001645,pos,-705.139502985664,-3591.3136314039602,695.270819272148,0.0,0.0,0.0,0.0,0.0,0.0,0.0,0.0
110.400001645,imu,0.0,0.0,0.0,0.0,0.0,-0.0,-0.9701541774534332,-0.24248891102409673,0.030533112585544586,-0.07879181951284409,0.1793842911720276
110.450001645,speed,0.0,0.0,0.0,0.019429875832876146,0.0,0.0,0.0,0.0,0.0,0.0,0.0
110.450001645,pos,-705.2145851998549,-3591.920753902253,695.2708435580488,0.0,0.0,0.0,0.0,0.0,0.0,0.0,0.0
110.450001645,imu,0.0,0.0,0.0,0.0,0.0,-0.0,-0.9703410896210561,-0.24173988043560693,0.030529359355568886,-0.10124552249908447,0.34995463490486145
110.500001646,speed,0.0,0.0,0.0,0.018167636926586177,0.0,0.0,0.0,0.0,0.0,0.0,0.0
110.500001646,imu,0.0,0.0,0.0,0.0,0.0,-0.0,-0.9705188043620175,-0.2410254143855373,0.026173964142799377,-0.13605011999607086,0.35126209259033203
110.500001646,pos,-704.0453320471895,-3591.667632616715,695.27071361458,0.0,0.0,0.0,0.0,0.0,0.0,0.0,0.0
110.500001646,imu,0.0,0.0,0.0,0.0,0.0,-0.0,-0.9706876274444445,-0.2403446066095002,0.02715628407895565,-0.0788736343383789,0.3356289267539978
110.500001646,pos,-704.8301606185024,-3592.9929468889372,695.270630901112,0.0,0.0,0.0,0.0,0.0,0.0,0.0,0.0
110.550001647,speed,0.0,0.0,0.0,0.01734168249038652,0.0,0.0,0.0,0.0,0.0,0.0,0.0
110.600001648,speed,0.0,0.0,0.0,0.017712709712206474,0.0,0.0,0.0,0.0,0.0,0.0,0.0
110.600001648,imu,0.0,0.0,0.0,0.0,0.0,-0.0,-0.9708511158254434,-0.2396833554932248,0.026517152786254883,-0.09840921312570572,0.28178325295448303
110.600001648,pos,-704.6940062536873,-3592.377100547011,695.2704427487265,0.0,0.0,0.0,0.0,0.0,0.0,0.0,0.0
110.650001648,speed,0.0,0.0,0.0,0.018343220505679124,0.0,0.0,0.0,0.0,0.0,0.0,0.0
110.650001648,imu,0.0,0.0,0.0,0.0,0.0,-0.0,-0.9710159203287774,-0.23901481641952116,0.028265606611967087,-0.106195829808712,0.3209795355796814
110.650001648,pos,-703.5005277009201,-3592.219377652878,695.2702933178621,0.0,0.0,0.0,0.0,0.0,0.0,0.0,0.0
110.700001649,speed,0.0,0.0,0.0,0.017497205023475633,0.0,0.0,0.0,0.0,0.0,0.0,0.0
110.700001649,pos,-704.1736848648253,-3592.554206769287,695.2701689100638,0.0,0.0,0.0,0.0,0.0,0.0,0.0,0.0
110.700001649,imu,0.0,0.0,0.0,0.0,0.0,-0.0,-0.9711882764075033,-0.23831351570698445,0.02803865633904934,-0.08572994917631149,0.19924978911876678
110.75000165,pos,-704.3141004956572,-3592.001370020983,695.2699841332633,0.0,0.0,0.0,0.0,0.0,0.0,0.0,0.0
110.75000165,imu,0.0,0.0,0.0,0.0,0.0,-0.0,-0.9713514010532327,-0.23764775545315375,0.02657213807106018,-0.09876782447099686,0.3262236416339874
110.75000165,speed,0.0,0.0,0.0,0.016692088986686476,0.0,0.0,0.0,0.0,0.0,0.0,0.0
110.800001651,speed,0.0,0.0,0.0,0.017908359356361855,0.0,0.0,0.0,0.0,0.0,0.0,0.0
110.800001651,imu,0.0,0.0,0.0,0.0,0.0,-0.0,-0.9715092665384041,-0.23700157178806258,0.026019733399152756,-0.07830894738435745,0.2716512084007263
110.800001651,pos,-704.6244852169193,-3591.735307760502,695.2698449556638,0.0,0.0,0.0,0.0,0.0,0.0,0.0,0.0
110.800001651,imu,0.0,0.0,0.0,0.0,0.0,-0.0,-0.9716676601225301,-0.23635134497609103,0.026429545134305954,-0.09668796509504318,0.3084879219532013
110.800001651,speed,0.0,0.0,0.0,0.017864041135457583,0.0,0.0,0.0,0.0,0.0,0.0,0.0
110.850001651,pos,-705.034342421552,-3592.129166551996,695.26971733081,0.0,0.0,0.0,0.0,0.0,0.0,0.0,0.0
110.900001652,speed,0.0,0.0,0.0,0.017622792924091267,0.0,0.0,0.0,0.0,0.0,0.0,0.0
110.900001652,pos,-704.3398620138533,-3592.079538534626,695.2695862688461,0.0,0.0,0.0,0.0,0.0,0.0,0.0,0.0
110.900001652,imu,0.0,0.0,0.0,0.0,0.0,-0.0,-0.9718258994896192,-0.2356998537996844,0.02923869714140892,-0.10638345777988434,0.30436286330223083
110.950001653,pos,-703.6723537048134,-3591.9508175676688,695.2695647846426,0.0,0.0,0.0,0.0,0.0,0.0,0.0,0.0
110.950001653,imu,0.0,0.0,0.0,0.0,0.0,-0.0,-0.9720123872121967,-0.2349296045755971,0.03430212661623955,-0.03945418819785118,0.04276705160737038
110.950001653,speed,0.0,0.0,0.0,0.021394803227021766,0.0,0.0,0.0,0.0,0.0,0.0,0.0
111.000001654,speed,0.0,0.0,0.0,0.01394080721292395,0.0,0.0,0.0,0.0,0.0,0.0,0.0
111.000001654,imu,0.0,0.0,0.0,0.0,0.0,-0.0,-0.9721944680258303,-0.23417496949924618,0.024053551256656647,-0.150642991065979,0.3422394096851349
111.000001654,pos,-703.7747362924567,-3592.547785058144,695.2695305481209,0.0,0.0,0.0,0.0,0.0,0.0,0.0,0.0
111.050001654,speed,0.0,0.0,0.0,0.020983124746860385,0.0,0.0,0.0,0.0,0.0,0.0,0.0
111.050001654,imu,0.0,0.0,0.0,0.0,0.0,-0.0,-0.9723839205978266,-0.2333870411201091,0.034296806901693344,-0.022744229063391685,0.20416101813316345
111.050001654,pos,-704.2313363329208,-3592.4947820652364,695.2695294575481,0.0,0.0,0.0,0.0,0.0,0.0,0.0,0.0
111.100001655,speed,0.0,0.0,0.0,0.023012284343547008,0.0,0.0,0.0,0.0,0.0,0.0,0.0
111.100001655,imu,0.0,0.0,0.0,0.0,0.0,-0.0,-0.9726056656418449,-0.23246122076893555,0.03638231009244919,-0.05773448199033737,0.05199875682592392
111.100001655,pos,-703.7148271730224,-3592.1076712128875,695.269526740939,0.0,0.0,0.0,0.0,0.0,0.0,0.0,0.0
111.150001656,imu,0.0,0.0,0.0,0.0,0.0,-0.0,-0.97279682236415,-0.23165997150611137,0.03339582309126854,-0.14874538779258728,0.5433992147445679
111.150001656,speed,0.0,0.0,0.0,0.01982517820183074,0.0,0.0,0.0,0.0,0.0,0.0,0.0
111.150001656,pos,-704.1359731205631,-3592.2027957175837,695.2695546694222,0.0,0.0,0.0,0.0,0.0,0.0,0.0,0.0
111.200001657,speed,0.0,0.0,0.0,0.01810343892362196,0.0,0.0,0.0,0.0,0.0,0.0,0.0
111.200001657,imu,0.0,0.0,0.0,0.0,0.0,-0.0,-0.9729654633796714,-0.23095065938503265,0.02788996510207653,-0.13789457082748413,0.438200980424881
111.200001657,pos,-703.0562069664644,-3592.210267485663,695.2694631745189,0.0,0.0,0.0,0.0,0.0,0.0,0.0,0.0
111.200001657,imu,0.0,0.0,0.0,0.0,0.0,-0.0,-0.9731299640919598,-0.23025653733690377,0.029037956148386,-0.07732594758272171,0.3148173391819
111.250001657,pos,-703.5439228369264,-3592.1543231711007,695.2693247560387,0.0,0.0,0.0,0.0,0.0,0.0,0.0,0.0
111.250001657,speed,0.0,0.0,0.0,0.0177043191065082,0.0,0.0,0.0,0.0,0.0,0.0,0.0
111.300001658,speed,0.0,0.0,0.0,0.016494972559513852,0.0,0.0,0.0,0.0,0.0,0.0,0.0
111.300001658,imu,0.0,0.0,0.0,0.0,0.0,-0.0,-0.9732915613536913,-0.22957250836651505,0.027634911239147186,-0.13048003613948822,0.3117098808288574
111.300001658,pos,-704.74468612987,-3592.9146944965346,695.2691705536477,0.0,0.0,0.0,0.0,0.0,0.0,0.0,0.0
111.350001659,speed,0.0,0.0,0.0,0.01658257508700915,0.0,0.0,0.0,0.0,0.0,0.0,0.0
111.350001659,imu,0.0,0.0,0.0,0.0,0.0,-0.0,-0.973448748527699,-0.22890507637415267,0.027554050087928772,-0.08495086431503296,0.31332701444625854
111.350001659,pos,-703.7759947736957,-3592.4476727471456,695.2690497397148,0.0,0.0,0.0,0.0,0.0,0.0,0.0,0.0
111.400001659,speed,0.0,0.0,0.0,0.014601184049475656,0.0,0.0,0.0,0.0,0.0,0.0,0.0
111.400001659,imu,0.0,0.0,0.0,0.0,0.0,-0.0,-0.973575431910379,-0.22836566813012654,0.025057995691895485,-0.1754479855298996,0.5595998764038086
111.400001659,pos,-703.9746941649195,-3592.677644754463,695.2689483865104,0.0,0.0,0.0,0.0,0.0,0.0,0.0,0.0
111.45000166,speed,0.0,0.0,0.0,0.018470550041586837,0.0,0.0,0.0,0.0,0.0,0.0,0.0
111.45000166,pos,-703.7566729636619,-3591.8770948966835,695.2689490615628,0.0,0.0,0.0,0.0,0.0,0.0,0.0,0.0
111.45000166,imu,0.0,0.0,0.0,0.0,0.0,-0.0,-0.9737346686539933,-0.2276857375008324,0.029032748192548752,-0.005488725379109383,-0.0492737703025341
111.45000166,speed,0.0,0.0,0.0,0.017881185017630273,0.0,0.0,0.0,0.0,0.0,0.0,0.0
111.500001661,imu,0.0,0.0,0.0,0.0,0.0,-0.0,-0.9739039833548981,-0.2269604177063973,0.027343472465872765,-0.048597026616334915,0.1960005760192871
111.500001661,pos,-703.5182403497032,-3591.915812864167,695.2688920867578,0.0,0.0,0.0,0.0,0.0,0.0,0.0,0.0
111.550001662,speed,0.0,0.0,0.0,0.01759120177269524,0.0,0.0,0.0,0.0,0.0,0.0,0.0
111.550001662,pos,-703.8341015244827,-3591.906298963236,695.2687653256594,0.0,0.0,0.0,0.0,0.0,0.0,0.0,0.0
111.550001662,imu,0.0,0.0,0.0,0.0,0.0,-0.0,-0.9740635334628135,-0.2262746843505442,0.027661466971039772,-0.10941313952207565,0.3651483356952667
111.600001662,speed,0.0,0.0,0.0,0.017141587422861138,0.0,0.0,0.0,0.0,0.0,0.0,0.0
111.600001662,imu,0.0,0.0,0.0,0.0,0.0,-0.0,-0.9742234612866505,-0.22558512246745852,0.025591542944312096,-0.11616672575473785,0.3397650122642517
111.600001662,pos,-703.9193217589569,-3592.252759666674,695.268616697913,0.0,0.0,0.0,0.0,0.0,0.0,0.0,0.0
111.650001663,speed,0.0,0.0,0.0,0.01701591557627522,0.0,0.0,0.0,0.0,0.0,0.0,0.0
111.650001663,pos,-703.9447433925264,-3592.5595184041294,695.2684906823397,0.0,0.0,0.0,0.0,0.0,0.0,0.0,0.0
111.650001663,imu,0.0,0.0,0.0,0.0,0.0,-0.0,-0.9743787184836769,-0.22491356776794846,0.025862328708171844,-0.09368631988763809,0.2864622473716736
111.650001663,speed,0.0,0.0,0.0,0.016032879884389617,0.0,0.0,0.0,0.0,0.0,0.0,0.0
111.700001664,imu,0.0,0.0,0.0,0.0,0.0,-0.0,-0.9745295563166334,-0.22425909984949471,0.02599797397851944,-0.08850667625665665,0.3317279815673828
111.700001664,pos,-704.5073350358147,-3592.4622026028683,695.2683960014797,0.0,0.0,0.0,0.0,0.0,0.0,0.0,0.0
111.750001665,speed,0.0,0.0,0.0,0.019316141891354267,0.0,0.0,0.0,0.0,0.0,0.0,0.0
111.750001665,imu,0.0,0.0,0.0,0.0,0.0,-0.0,-0.9746988233489379,-0.22352226681517864,0.03137434273958206,-0.05145648866891861,0.10927615314722061
111.750001665,pos,-704.0552997981175,-3592.6769154947256,695.2683977612155,0.0,0.0,0.0,0.0,0.0,0.0,0.0,0.0
111.750001665,speed,0.0,0.0,0.0,0.01821321653225696,0.0,0.0,0.0,0.0,0.0,0.0,0.0
111.800001665,pos,-705.3084122940063,-3592.336930513314,695.2683413514061,0.0,0.0,0.0,0.0,0.0,0.0,0.0,0.0
111.800001665,imu,0.0,0.0,0.0,0.0,0.0,-0.0,-0.9748645586768625,-0.22279832188723078,0.03112996183335781,-0.10751799494028091,0.3443276584148407
111.850001666,speed,0.0,0.0,0.0,0.01692827419569328,0.0,0.0,0.0,0.0,0.0,0.0,0.0
111.850001666,imu,0.0,0.0,0.0,0.0,0.0,-0.0,-0.9750223961874157,-0.22210656661375458,0.027707016095519066,-0.09024324268102646,0.33104145526885986
111.850001666,pos,-704.7563253474503,-3591.638886980567,695.2682233453152,0.0,0.0,0.0,0.0,0.0,0.0,0.0,0.0
111.900001667,speed,0.0,0.0,0.0,0.017907266754056027,0.0,0.0,0.0,0.0,0.0,0.0,0.0
111.900001667,imu,0.0,0.0,0.0,0.0,0.0,-0.0,-0.9751793733076022,-0.22141632702985645,0.02767638862133026,-0.10902393609285355,0.2996862828731537
111.900001667,pos,-703.4508931719816,-3592.226562082968,695.2680674658952,0.0,0.0,0.0,0.0,0.0,0.0,0.0,0.0
111.950001668,speed,0.0,0.0,0.0,0.017586370587436468,0.0,0.0,0.0,0.0,0.0,0.0,0.0
111.950001668,imu,0.0,0.0,0.0,0.0,0.0,-0.0,-0.9753330725801498,-0.22073830100679032,0.02588026039302349,-0.0730447843670845,0.29801955819129944
111.950001668,pos,-703.5908583608627,-3592.66313968421,695.2680115590974,0.0,0.0,0.0,0.0,0.0,0.0,0.0,0.0
112.000001668,speed,0.0,0.0,0.0,0.017611236862704556,0.0,0.0,0.0,0.0,0.0,0.0,0.0
112.000001668,pos,-704.2275207392797,-3591.38642582898,695.2677837514266,0.0,0.0,0.0,0.0,0.0,0.0,0.0,0.0
112.000001668,imu,0.0,0.0,0.0,0.0,0.0,-0.0,-0.9754843066680484,-0.22006900609662608,0.026420244947075844,-0.11711189150810242,0.31700441241264343
112.000001668,imu,0.0,0.0,0.0,0.0,0.0,-0.0,-0.9756330936913185,-0.21940844672506782,0.028035376220941544,-0.07267264276742935,0.29748469591140747
112.050001669,pos,-704.3205473108025,-3591.766744918339,695.2677382333877,0.0,0.0,0.0,0.0,0.0,0.0,0.0,0.0
112.050001669,speed,0.0,0.0,0.0,0.01781401706032708,0.0,0.0,0.0,0.0,0.0,0.0,0.0
112.10000167,speed,0.0,0.0,0.0,0.017028504657296478,0.0,0.0,0.0,0.0,0.0,0.0,0.0
112.10000167,pos,-703.2073700989822,-3592.3362069004756,695.2676451881402,0.0,0.0,0.0,0.0,0.0,0.0,0.0,0.0
112.10000167,imu,0.0,0.0,0.0,0.0,0.0,-0.0,-0.9757840410174666,-0.21873615452325906,0.027434512972831726,-0.09918535500764847,0.2825995981693268
