Time,Sensor,pos x,pos y,pos z,vel,orientation x,orientation y,orientation z,orientation w,ang vel z,lin acc x,lin acc y
267.80000399,speed,0.0,0.0,0.0,5.61152404011594,0.0,0.0,0.0,0.0,0.0,0.0,0.0
267.80000399,imu,0.0,0.0,0.0,0.0,0.0,0.0,-0.5473178698223098,0.8369248170374499,-0.23997212946414948,-21.594999313354492,-2.1788153648376465
267.80000399,pos,523.8664119757203,-5912.324168001691,694.4199835688885,0.0,0.0,0.0,0.0,0.0,0.0,0.0,0.0
267.850003991,speed,0.0,0.0,0.0,4.344841162033731,0.0,0.0,0.0,0.0,0.0,0.0,0.0
267.850003991,pos,525.1851138916101,-5912.155752811009,694.4153751914023,0.0,0.0,0.0,0.0,0.0,0.0,0.0,0.0
267.850003991,imu,0.0,0.0,0.0,0.0,0.0,0.0,-0.5528236713691351,0.8332982589529097,-0.27630946040153503,-25.2449951171875,-2.934699535369873
267.900003992,speed,0.0,0.0,0.0,3.018041909028325,0.0,0.0,0.0,0.0,0.0,0.0,0.0
267.900003992,imu,0.0,0.0,0.0,0.0,0.0,0.0,-0.5586180280718009,0.8294250410454055,-0.2727218568325043,-26.776775360107422,-2.044029951095581
267.900003992,pos,524.1481401781007,-5912.953864843916,694.4123882032459,0.0,0.0,0.0,0.0,0.0,0.0,0.0,0.0
267.950003992,speed,0.0,0.0,0.0,1.6766845177656304,0.0,0.0,0.0,0.0,0.0,0.0,0.0
267.950003992,imu,0.0,0.0,0.0,0.0,0.0,0.0,-0.5636291358527298,0.8260279639442633,-0.20910997688770294,-27.24801254272461,-0.3977280259132385
267.950003992,pos,524.1065799863699,-5913.136111692948,694.4110040671021,0.0,0.0,0.0,0.0,0.0,0.0,0.0,0.0
268.000003993,pos,524.303630532528,-5913.501215857327,694.4111386029754,0.0,0.0,0.0,0.0,0.0,0.0,0.0,0.0
268.000003993,speed,0.0,0.0,0.0,0.38223738201854207,0.0,0.0,0.0,0.0,0.0,0.0,0.0
268.000003993,imu,0.0,0.0,0.0,0.0,0.0,0.0,-0.5661641477778493,0.8242925195408373,-0.04630891606211662,-26.950653076171875,2.580232620239258
268.050003994,speed,0.0,0.0,0.0,-0.0003005335212706021,0.0,0.0,0.0,0.0,0.0,0.0,0.0
268.050003994,pos,524.3502344027315,-5913.271521647471,694.4115508284658,0.0,0.0,0.0,0.0,0.0,0.0,0.0,0.0
268.050003994,imu,0.0,0.0,0.0,0.0,0.0,0.0,-0.5662471774154647,0.8242354845971018,0.005064181983470917,-16.693546295166016,1.8925390243530273
268.100003995,speed,0.0,0.0,0.0,-0.009228727925580578,0.0,0.0,0.0,0.0,0.0,0.0,0.0
268.100003995,pos,524.4936806986896,-5913.146378726073,694.4110085728,0.0,0.0,0.0,0.0,0.0,0.0,0.0,0.0
268.100003995,imu,0.0,0.0,0.0,0.0,0.0,0.0,-0.5662049263651385,0.8242645093414177,0.0011433351319283247,-0.6889932751655579,0.0072690206579864025
268.150003995,speed,0.0,0.0,0.0,-0.012504411303438242,0.0,0.0,0.0,0.0,0.0,0.0,0.0
268.150003995,pos,524.2412747382518,-5913.542730194201,694.4100944774605,0.0,0.0,0.0,0.0,0.0,0.0,0.0,0.0
268.150003995,imu,0.0,0.0,0.0,0.0,0.0,0.0,-0.5661814419985487,0.8242806407628679,2.8561509680002928e-05,-0.15400223433971405,-0.1013495922088623
268.200003996,speed,0.0,0.0,0.0,-0.013134042190385477,0.0,0.0,0.0,0.0,0.0,0.0,0.0
268.200003996,imu,0.0,0.0,0.0,0.0,0.0,0.0,-0.5661675869893187,0.8242901573127586,-0.0015642772195860744,-0.5439931154251099,0.024189524352550507
268.200003996,pos,524.3417729789012,-5913.407960092272,694.4091782156027,0.0,0.0,0.0,0.0,0.0,0.0,0.0,0.0
268.200003996,imu,0.0,0.0,0.0,0.0,0.0,0.0,-0.5661607085565241,0.8242948817545663,0.0022465079091489315,-0.47947248816490173,-0.009766335599124432
268.200003996,pos,524.8657857984402,-5912.98466423786,694.4083634126973,0.0,0.0,0.0,0.0,0.0,0.0,0.0,0.0
268.200003996,speed,0.0,0.0,0.0,-0.012494326513085376,0.0,0.0,0.0,0.0,0.0,0.0,0.0
268.300003997,speed,0.0,0.0,0.0,-0.011127590253278308,0.0,0.0,0.0,0.0,0.0,0.0,0.0
268.300003997,pos,523.6817203843119,-5912.700355504476,694.4076495619915,0.0,0.0,0.0,0.0,0.0,0.0,0.0,0.0
268.300003997,imu,0.0,0.0,0.0,0.0,0.0,0.0,-0.5661584484914296,0.8242964340586323,6.187616963870823e-05,-0.3795085549354553,-0.05953798070549965
268.350003998,speed,0.0,0.0,0.0,-0.009622515898607848,0.0,0.0,0.0,0.0,0.0,0.0,0.0
268.350003998,imu,0.0,0.0,0.0,0.0,0.0,0.0,-0.5661570727975492,0.8242973789363343,0.0005515883094631135,-0.42375022172927856,-0.03176047280430794
268.350003998,pos,523.9478444185124,-5912.412895560729,694.4070223321878,0.0,0.0,0.0,0.0,0.0,0.0,0.0,0.0
268.400003999,speed,0.0,0.0,0.0,-0.008075614122547833,0.0,0.0,0.0,0.0,0.0,0.0,0.0
268.400003999,imu,0.0,0.0,0.0,0.0,0.0,0.0,-0.5661563849500176,0.8242978513743242,-0.0015872656367719173,-0.4825693368911743,-0.021457664668560028
268.400003999,pos,524.4540739927331,-5912.989496455575,694.4064648969087,0.0,0.0,0.0,0.0,0.0,0.0,0.0,0.0
268.400003999,speed,0.0,0.0,0.0,-0.006780934712810951,0.0,0.0,0.0,0.0,0.0,0.0,0.0
268.450004,imu,0.0,0.0,0.0,0.0,0.0,0.0,-0.5661559918941084,0.8242981213386321,0.00023076689103618264,-0.37653157114982605,-0.014798901975154877
268.450004,pos,523.8644075245171,-5913.242035150692,694.4060348280182,0.0,0.0,0.0,0.0,0.0,0.0,0.0,0.0
268.500004,speed,0.0,0.0,0.0,-0.005623442478883697,0.0,0.0,0.0,0.0,0.0,0.0,0.0
268.500004,pos,523.4000127551816,-5912.609523493323,694.4056725802939,0.0,0.0,0.0,0.0,0.0,0.0,0.0,0.0
268.500004,imu,0.0,0.0,0.0,0.0,0.0,0.0,-0.5661555988380702,0.8242983913027527,0.00059015944134444,-0.3842073380947113,0.018933705985546112
268.550004001,speed,0.0,0.0,0.0,-0.00458971662513577,0.0,0.0,0.0,0.0,0.0,0.0,0.0
268.550004001,imu,0.0,0.0,0.0,0.0,0.0,0.0,-0.5661555005740406,0.8242984587937536,0.0005322345532476902,-0.3957527279853821,-0.03611012175679207
268.550004001,pos,525.1058579225585,-5913.824627220578,694.4054182993832,0.0,0.0,0.0,0.0,0.0,0.0,0.0,0.0
268.600004002,speed,0.0,0.0,0.0,-0.003683558227707601,0.0,0.0,0.0,0.0,0.0,0.0,0.0
268.600004002,pos,523.8557620239095,-5912.331436233381,694.4051563705025,0.0,0.0,0.0,0.0,0.0,0.0,0.0,0.0
268.600004002,imu,0.0,0.0,0.0,0.0,0.0,0.0,-0.5661552057819035,0.8242986612666858,0.0020612599328160286,-0.24847008287906647,-0.02665816619992256
268.650004003,speed,0.0,0.0,0.0,-0.00296135670074835,0.0,0.0,0.0,0.0,0.0,0.0,0.0
268.650004003,pos,524.5071700805362,-5913.081106986156,694.4049393225757,0.0,0.0,0.0,0.0,0.0,0.0,0.0,0.0
268.650004003,imu,0.0,0.0,0.0,0.0,0.0,0.0,-0.5661550092537718,0.8242987962485822,0.0018505639163777232,-0.24049244821071625,-0.024593383073806763
268.700004003,speed,0.0,0.0,0.0,-0.002445745755305108,0.0,0.0,0.0,0.0,0.0,0.0,0.0
268.700004003,pos,524.5725208004927,-5913.553612355862,694.4047841095695,0.0,0.0,0.0,0.0,0.0,0.0,0.0,0.0
268.700004003,imu,0.0,0.0,0.0,0.0,0.0,0.0,-0.566154714461514,0.8242989987213387,0.00023121385311242193,-0.3240278363227844,-0.033488474786281586
268.700004003,speed,0.0,0.0,0.0,0.041322366333320204,0.0,0.0,0.0,0.0,0.0,0.0,0.0
268.700004003,imu,0.0,0.0,0.0,0.0,0.0,0.0,-0.5660695164648137,0.8243575089300103,0.0021350388415157795,0.36961835622787476,-0.03935397043824196
268.750004004,pos,524.2898816905843,-5912.577886559271,694.4045954901476,0.0,0.0,0.0,0.0,0.0,0.0,0.0,0.0
268.800004005,speed,0.0,0.0,0.0,0.06615477071343667,0.0,0.0,0.0,0.0,0.0,0.0,0.0
268.800004005,imu,0.0,0.0,0.0,0.0,0.0,0.0,-0.5661711244536903,0.8242877275774788,-0.00964676309376955,0.18912789225578308,-0.07646221667528152
268.800004005,pos,523.9712526355531,-5912.824269072979,694.4044470937688,0.0,0.0,0.0,0.0,0.0,0.0,0.0,0.0
268.850004006,speed,0.0,0.0,0.0,0.06973867556179081,0.0,0.0,0.0,0.0,0.0,0.0,0.0
268.850004006,imu,0.0,0.0,0.0,0.0,0.0,0.0,-0.5662523850000696,0.8242319069786931,-0.0037966270465403795,-0.06743530184030533,0.024240752682089806
268.850004006,pos,524.2377369120803,-5912.992345926207,694.4042386163819,0.0,0.0,0.0,0.0,0.0,0.0,0.0,0.0
268.900004006,speed,0.0,0.0,0.0,0.31999676219640977,0.0,0.0,0.0,0.0,0.0,0.0,0.0
268.900004006,pos,524.2904767842009,-5913.784362236258,694.4038075259556,0.0,0.0,0.0,0.0,0.0,0.0,0.0,0.0
268.900004006,imu,0.0,0.0,0.0,0.0,0.0,0.0,-0.5665590030901401,0.8240211744958418,-0.018311256542801857,2.458087921142578,-0.3442058861255646
268.950004007,pos,523.6112791922047,-5913.055391515797,694.4039031891525,0.0,0.0,0.0,0.0,0.0,0.0,0.0,0.0
268.950004007,speed,0.0,0.0,0.0,0.001319542947783881,0.0,0.0,0.0,0.0,0.0,0.0,0.0
268.950004007,imu,0.0,0.0,0.0,0.0,0.0,0.0,-0.5666270752250503,0.8239743670903271,0.000872105301823467,-3.8103535175323486,0.4294961392879486
269.000004008,speed,0.0,0.0,0.0,0.09188879214952075,0.0,0.0,0.0,0.0,0.0,0.0,0.0
269.000004008,imu,0.0,0.0,0.0,0.0,0.0,0.0,-0.5666622394018443,0.8239501844384082,-0.007780695799738169,-0.1425529420375824,-0.07464079558849335
269.000004008,pos,525.0489645911958,-5913.056847290036,694.4038060066309,0.0,0.0,0.0,0.0,0.0,0.0,0.0,0.0
269.050004009,speed,0.0,0.0,0.0,0.3143547803039593,0.0,0.0,0.0,0.0,0.0,0.0,0.0
269.050004009,imu,0.0,0.0,0.0,0.0,0.0,0.0,-0.5668895047416213,0.8237938391453284,-0.014981181360781193,4.727564334869385,-0.4797249734401703
269.050004009,pos,525.4018937304625,-5912.990482508012,694.4032287575295,0.0,0.0,0.0,0.0,0.0,0.0,0.0,0.0
269.100004009,speed,0.0,0.0,0.0,0.5156311368987581,0.0,0.0,0.0,0.0,0.0,0.0,0.0
269.100004009,pos,525.8935235951467,-5913.655213204643,694.4024060665196,0.0,0.0,0.0,0.0,0.0,0.0,0.0,0.0
269.100004009,imu,0.0,0.0,0.0,0.0,0.0,0.0,-0.5670614473814493,0.8236754912546905,-0.0075440057553350925,3.763033151626587,0.11044955998659134
269.15000401,imu,0.0,0.0,0.0,0.0,0.0,0.0,-0.5671008208313559,0.8236483831177005,0.001608935883268714,-7.923846244812012,0.2875479757785797
269.15000401,speed,0.0,0.0,0.0,0.004998794121434265,0.0,0.0,0.0,0.0,0.0,0.0,0.0
269.15000401,pos,523.905492711716,-5914.631937428755,694.4025571080311,0.0,0.0,0.0,0.0,0.0,0.0,0.0,0.0
269.200004011,speed,0.0,0.0,0.0,0.002205180381881731,0.0,0.0,0.0,0.0,0.0,0.0,0.0
269.200004011,imu,0.0,0.0,0.0,0.0,0.0,0.0,-0.5670999371521822,0.8236489915504001,-0.00019008200615644455,-2.3516042232513428,0.08797582983970642
269.200004011,pos,524.7937440887154,-5912.841909956274,694.4027459429476,0.0,0.0,0.0,0.0,0.0,0.0,0.0,0.0
269.250004012,speed,0.0,0.0,0.0,0.0007590518757116917,0.0,0.0,0.0,0.0,0.0,0.0,0.0
269.250004012,imu,0.0,0.0,0.0,0.0,0.0,0.0,-0.5670995444056732,0.8236492619646288,0.00027750784647651017,-0.17521077394485474,-0.03847123309969902
269.250004012,pos,524.2152728533094,-5912.196598038375,694.4028118269607,0.0,0.0,0.0,0.0,0.0,0.0,0.0,0.0
269.300004012,imu,0.0,0.0,0.0,0.0,0.0,0.0,-0.5670993480323704,0.8236493971716731,-0.0011473444756120443,-0.17487502098083496,-0.04028503596782684
269.300004012,speed,0.0,0.0,0.0,7.050181251040044e-05,0.0,0.0,0.0,0.0,0.0,0.0,0.0
269.300004012,pos,525.3035922057145,-5913.013549109855,694.402799643967,0.0,0.0,0.0,0.0,0.0,0.0,0.0,0.0
269.350004013,speed,0.0,0.0,0.0,-0.00021661120963849907,0.0,0.0,0.0,0.0,0.0,0.0,0.0
269.350004013,pos,524.6750815533137,-5911.922553948691,694.4028000332644,0.0,0.0,0.0,0.0,0.0,0.0,0.0,0.0
269.350004013,imu,0.0,0.0,0.0,0.0,0.0,0.0,-0.5670993480323704,0.8236493971716731,0.00042175775161013007,-0.24357447028160095,0.00696898577734828
269.400004014,speed,0.0,0.0,0.0,-0.0002827264699814765,0.0,0.0,0.0,0.0,0.0,0.0,0.0
269.400004014,pos,524.5637438767604,-5913.30194180655,694.4027807781167,0.0,0.0,0.0,0.0,0.0,0.0,0.0,0.0
269.400004014,imu,0.0,0.0,0.0,0.0,0.0,0.0,-0.5670991516590353,0.8236495323786704,-0.0001249916385859251,-0.21202833950519562,-0.026049507781863213
269.450004015,speed,0.0,0.0,0.0,-0.0002788711284524521,0.0,0.0,0.0,0.0,0.0,0.0,0.0
269.450004015,imu,0.0,0.0,0.0,0.0,0.0,0.0,-0.5670991516590353,0.8236495323786704,-0.000351793656591326,-0.24190597236156464,0.007664118893444538
269.450004015,pos,523.4034379349183,-5912.570265995936,694.402764610234,0.0,0.0,0.0,0.0,0.0,0.0,0.0,0.0
269.500004015,speed,0.0,0.0,0.0,-0.0002498240664258798,0.0,0.0,0.0,0.0,0.0,0.0,0.0
269.500004015,imu,0.0,0.0,0.0,0.0,0.0,0.0,-0.5670990534723558,0.8236495999821515,-0.00039843289414420724,-0.2894901633262634,-0.016765205189585686
269.500004015,pos,524.682725433541,-5912.715898026213,694.4027432249288,0.0,0.0,0.0,0.0,0.0,0.0,0.0,0.0
269.550004016,speed,0.0,0.0,0.0,0.0,0.0,0.0,0.0,0.0,0.0,0.0,0.0
269.550004016,imu,0.0,0.0,0.0,0.0,0.0,0.0,-0.5670990534723558,0.8236495999821515,0.0015078475698828697,-0.2455988973379135,-0.010575845837593079
269.550004016,pos,524.8746680985275,-5913.221707955638,694.4027408231905,0.0,0.0,0.0,0.0,0.0,0.0,0.0,0.0
269.600004017,speed,0.0,0.0,0.0,-3.493730862746223e-05,0.0,0.0,0.0,0.0,0.0,0.0,0.0
269.600004017,imu,0.0,0.0,0.0,0.0,0.0,0.0,-0.5670990534723558,0.8236495999821515,-4.4089396396884695e-05,-0.2474895864725113,-0.01152211893349886
269.600004017,pos,524.3129371075267,-5913.036610403787,694.402750544129,0.0,0.0,0.0,0.0,0.0,0.0,0.0,0.0
269.650004018,speed,0.0,0.0,0.0,-0.00014040619089195503,0.0,0.0,0.0,0.0,0.0,0.0,0.0
269.650004018,imu,0.0,0.0,0.0,0.0,0.0,0.0,-0.5670986607255567,0.8236498703959589,-0.001563552301377058,-0.2005617320537567,-0.006696636322885752
269.650004018,pos,524.3504032500934,-5913.307202887013,694.4026806073051,0.0,0.0,0.0,0.0,0.0,0.0,0.0,0.0
269.700004018,speed,0.0,0.0,0.0,-9.156987687646836e-05,0.0,0.0,0.0,0.0,0.0,0.0,0.0
269.700004018,imu,0.0,0.0,0.0,0.0,0.0,0.0,-0.5670986607255567,0.8236498703959589,-0.0009473867248743773,-0.28979748487472534,-0.01618039235472679
269.700004018,pos,524.7199873280105,-5913.565657774481,694.4026808710473,0.0,0.0,0.0,0.0,0.0,0.0,0.0,0.0
269.750004019,speed,0.0,0.0,0.0,-5.3102063640867086e-05,0.0,0.0,0.0,0.0,0.0,0.0,0.0
269.750004019,imu,0.0,0.0,0.0,0.0,0.0,0.0,-0.5670986607255567,0.8236498703959589,0.0009091290994547307,-0.24483253061771393,-0.009791538119316101
269.750004019,pos,524.5061513415751,-5913.464566781055,694.4026735468087,0.0,0.0,0.0,0.0,0.0,0.0,0.0,0.0
269.80000402,pos,525.0863825345873,-5912.6815069665945,694.4024622453551,0.0,0.0,0.0,0.0,0.0,0.0,0.0,0.0
269.80000402,speed,0.0,0.0,0.0,0.09848457520500939,0.0,0.0,0.0,0.0,0.0,0.0,0.0
269.80000402,imu,0.0,0.0,0.0,0.0,0.0,0.0,-0.5671477530761022,0.8236160672186578,-0.005703682079911232,1.494592308998108,-0.1825842559337616
269.850004021,imu,0.0,0.0,0.0,0.0,0.0,0.0,-0.5673454766585126,0.8234798783911633,-0.013456419110298157,1.2531237602233887,-0.2634984254837036
269.850004021,pos,525.0573144499904,-5913.057570288753,694.4021976468007,0.0,0.0,0.0,0.0,0.0,0.0,0.0,0.0
269.850004021,speed,0.0,0.0,0.0,0.20455893352196677,0.0,0.0,0.0,0.0,0.0,0.0,0.0
269.900004021,speed,0.0,0.0,0.0,0.3466723608369471,0.0,0.0,0.0,0.0,0.0,0.0,0.0
269.900004021,imu,0.0,0.0,0.0,0.0,0.0,0.0,-0.56803960621426,0.8230012185725781,-0.04837702959775925,2.5998613834381104,-0.23605762422084808
269.900004021,pos,523.5248289416764,-5912.2082188935365,694.4016614201755,0.0,0.0,0.0,0.0,0.0,0.0,0.0,0.0
269.950004022,imu,0.0,0.0,0.0,0.0,0.0,0.0,-0.5686459641612572,0.8225823772991457,-0.04770312085747719,2.244999408721924,-0.39759066700935364
269.950004022,pos,524.8885170369356,-5912.560892194596,694.400996379748,0.0,0.0,0.0,0.0,0.0,0.0,0.0,0.0
269.950004022,speed,0.0,0.0,0.0,0.4735958693524957,0.0,0.0,0.0,0.0,0.0,0.0,0.0
270.000004023,speed,0.0,0.0,0.0,0.7030037643562906,0.0,0.0,0.0,0.0,0.0,0.0,0.0
270.000004023,imu,0.0,0.0,0.0,0.0,0.0,0.0,-0.5699945946716323,0.821648441880785,-0.08796792477369308,4.106137752532959,-0.8121622204780579
270.000004023,pos,524.1467960372337,-5912.994473543505,694.4000542034782,0.0,0.0,0.0,0.0,0.0,0.0,0.0,0.0
270.050004024,speed,0.0,0.0,0.0,0.008920415105399662,0.0,0.0,0.0,0.0,0.0,0.0,0.0
270.050004024,imu,0.0,0.0,0.0,0.0,0.0,0.0,-0.5703381468509559,0.8214100061763416,-0.0006212738808244467,-8.36469554901123,1.1979748010635376
270.050004024,pos,524.2729832084427,-5914.031851010888,694.4001739285741,0.0,0.0,0.0,0.0,0.0,0.0,0.0,0.0
270.100004024,speed,0.0,0.0,0.0,0.0038360633505959653,0.0,0.0,0.0,0.0,0.0,0.0,0.0
270.100004024,imu,0.0,0.0,0.0,0.0,0.0,0.0,-0.5703362863751308,0.8214112979767352,0.0001343836192972958,-5.155615329742432,0.5571280717849731
270.100004024,pos,523.6102896609052,-5911.3097719525085,694.4005217451368,0.0,0.0,0.0,0.0,0.0,0.0,0.0,0.0
270.100004024,pos,525.0022651338053,-5912.558030246932,694.4006628703505,0.0,0.0,0.0,0.0,0.0,0.0,0.0,0.0
270.150004025,imu,0.0,0.0,0.0,0.0,0.0,0.0,-0.5703354050960873,0.8214119098807139,0.0016032480634748936,-0.16783422231674194,-0.018859177827835083
270.150004025,speed,0.0,0.0,0.0,0.0014898596730207176,0.0,0.0,0.0,0.0,0.0,0.0,0.0
270.200004026,speed,0.0,0.0,0.0,0.00032718536608117884,0.0,0.0,0.0,0.0,0.0,0.0,0.0
270.200004026,pos,524.0801314338539,-5912.893644169793,694.4006980960228,0.0,0.0,0.0,0.0,0.0,0.0,0.0,0.0
270.200004026,imu,0.0,0.0,0.0,0.0,0.0,0.0,-0.5703349154963349,0.8214122498269603,0.00031276847585104406,-0.18555136024951935,-0.05681430548429489
270.250004027,speed,0.0,0.0,0.0,-0.0001699954176547209,0.0,0.0,0.0,0.0,0.0,0.0,0.0
270.250004027,imu,0.0,0.0,0.0,0.0,0.0,0.0,-0.5703349154963349,0.8214122498269603,0.0006127461674623191,-0.20731611549854279,-0.0031347242183983326
270.250004027,pos,523.591083784195,-5912.455757144513,694.400702862154,0.0,0.0,0.0,0.0,0.0,0.0,0.0,0.0
270.300004027,speed,0.0,0.0,0.0,-0.00040292908304037287,0.0,0.0,0.0,0.0,0.0,0.0,0.0
270.300004027,imu,0.0,0.0,0.0,0.0,0.0,0.0,-0.5703349154963349,0.8214122498269603,0.0005552046350203454,-0.21344901621341705,-0.025720374658703804
270.300004027,pos,524.165165666108,-5913.841487367696,694.4006595245241,0.0,0.0,0.0,0.0,0.0,0.0,0.0,0.0
270.350004028,speed,0.0,0.0,0.0,-0.00043159345545321705,0.0,0.0,0.0,0.0,0.0,0.0,0.0
270.350004028,pos,524.7973103148086,-5912.670625504562,694.4006023154072,0.0,0.0,0.0,0.0,0.0,0.0,0.0,0.0
270.350004028,imu,0.0,0.0,0.0,0.0,0.0,0.0,-0.5703345238163872,0.8214125217837471,-0.0008601505542173982,-0.2947534918785095,-0.015022706240415573
270.400004029,pos,524.5492536142247,-5913.298178337085,694.4005789114094,0.0,0.0,0.0,0.0,0.0,0.0,0.0,0.0
270.400004029,speed,0.0,0.0,0.0,-0.0004432362816839466,0.0,0.0,0.0,0.0,0.0,0.0,0.0
270.400004029,imu,0.0,0.0,0.0,0.0,0.0,0.0,-0.5703345238163872,0.8214125217837471,1.5119012459763326e-05,-0.20417356491088867,-0.0067773181945085526
270.45000403,speed,0.0,0.0,0.0,0.09917285224566603,0.0,0.0,0.0,0.0,0.0,0.0,0.0
270.45000403,pos,523.3552620706272,-5912.997844021267,694.4003889830225,0.0,0.0,0.0,0.0,0.0,0.0,0.0,0.0
270.45000403,imu,0.0,0.0,0.0,0.0,0.0,0.0,-0.5704446786906926,0.8213360265771084,9.242550004273653e-05,1.3670059442520142,-0.038033224642276764
270.50000403,speed,0.0,0.0,0.0,0.19561361516379497,0.0,0.0,0.0,0.0,0.0,0.0,0.0
270.50000403,imu,0.0,0.0,0.0,0.0,0.0,0.0,-0.5705400400464755,0.8212697867958897,0.019280750304460526,1.1577284336090088,-0.2790272533893585
270.50000403,pos,524.468368920137,-5913.876438217704,694.4000557531363,0.0,0.0,0.0,0.0,0.0,0.0,0.0,0.0
270.50000403,speed,0.0,0.0,0.0,0.22351609528883237,0.0,0.0,0.0,0.0,0.0,0.0,0.0
270.550004031,pos,525.2431988234582,-5913.720270363947,694.399810661128,0.0,0.0,0.0,0.0,0.0,0.0,0.0,0.0
270.550004031,imu,0.0,0.0,0.0,0.0,0.0,0.0,-0.5708784422178524,0.8210345937967036,-0.03369874507188797,0.9017347097396851,-0.053424935787916183
270.600004032,speed,0.0,0.0,0.0,0.41512999450439686,0.0,0.0,0.0,0.0,0.0,0.0,0.0
270.600004032,imu,0.0,0.0,0.0,0.0,0.0,0.0,-0.5711345531788996,0.8208564564923265,-0.004586348310112953,2.7675983905792236,0.0035433387383818626
270.600004032,pos,524.6883221754126,-5912.672023566227,694.3991736851865,0.0,0.0,0.0,0.0,0.0,0.0,0.0,0.0
270.600004032,imu,0.0,0.0,0.0,0.0,0.0,0.0,-0.5715377394040118,0.8205757810445979,-0.02058669552206993,4.050022602081299,-0.12338221073150635
270.600004032,pos,523.8979535288433,-5913.04012686668,694.3982232676126,0.0,0.0,0.0,0.0,0.0,0.0,0.0,0.0
270.650004032,speed,0.0,0.0,0.0,0.5976752404722152,0.0,0.0,0.0,0.0,0.0,0.0,0.0
270.650004032,speed,0.0,0.0,0.0,0.8506461939884175,0.0,0.0,0.0,0.0,0.0,0.0,0.0
270.700004033,pos,525.0085015325742,-5913.985177445351,694.3971284034776,0.0,0.0,0.0,0.0,0.0,0.0,0.0,0.0
270.700004033,imu,0.0,0.0,0.0,0.0,0.0,0.0,-0.5719392231060301,0.820295998449871,-0.023861119523644447,3.688265085220337,-0.19832414388656616
270.750004034,speed,0.0,0.0,0.0,0.01838466175640682,0.0,0.0,0.0,0.0,0.0,0.0,0.0
270.750004034,imu,0.0,0.0,0.0,0.0,0.0,0.0,-0.572049717117149,0.8202189470782724,0.0015783961862325668,-8.64797306060791,0.28909367322921753
270.750004034,pos,525.1133026603295,-5913.462190789236,694.3970890413207,0.0,0.0,0.0,0.0,0.0,0.0,0.0,0.0
270.750004034,speed,0.0,0.0,0.0,0.0052050121115538,0.0,0.0,0.0,0.0,0.0,0.0,0.0
270.800004035,imu,0.0,0.0,0.0,0.0,0.0,0.0,-0.5720484460061287,0.8202198335946121,0.001028635073453188,-7.457340717315674,0.31821829080581665
270.800004035,pos,523.9670559761358,-5913.720885191326,694.3975162699826,0.0,0.0,0.0,0.0,0.0,0.0,0.0,0.0
270.850004035,speed,0.0,0.0,0.0,0.001967858683131355,0.0,0.0,0.0,0.0,0.0,0.0,0.0
270.850004035,imu,0.0,0.0,0.0,0.0,0.0,0.0,-0.5720476637832794,0.8202203791421498,-0.00021805093274451792,-0.10152825713157654,-0.06889362633228302
270.850004035,pos,523.3474484527676,-5913.682173505568,694.3977405296437,0.0,0.0,0.0,0.0,0.0,0.0,0.0,0.0
270.900004036,pos,523.7577528382024,-5912.872991425428,694.3977658453975,0.0,0.0,0.0,0.0,0.0,0.0,0.0,0.0
270.900004036,imu,0.0,0.0,0.0,0.0,0.0,0.0,-0.5720475660053868,0.8202204473355397,-0.0020935882348567247,-0.17349156737327576,-0.02050945721566677
270.900004036,speed,0.0,0.0,0.0,0.000420388101405744,0.0,0.0,0.0,0.0,0.0,0.0,0.0
270.950004037,speed,0.0,0.0,0.0,-0.00028632921773215586,0.0,0.0,0.0,0.0,0.0,0.0,0.0
270.950004037,pos,524.4016136861674,-5912.512367621737,694.397760436409,0.0,0.0,0.0,0.0,0.0,0.0,0.0,0.0
270.950004037,imu,0.0,0.0,0.0,0.0,0.0,0.0,-0.5720471748937345,0.8202207201089821,-0.0011774739250540733,-0.21119408309459686,-0.008427657186985016
271.000004038,speed,0.0,0.0,0.0,-0.0006262035330493495,0.0,0.0,0.0,0.0,0.0,0.0,0.0
271.000004038,imu,0.0,0.0,0.0,0.0,0.0,0.0,-0.5720472726716598,0.820220651915639,-0.0010099838254973292,-0.21814800798892975,-0.027999119833111763
271.000004038,pos,524.5205055097254,-5913.3225736116265,694.3977341070845,0.0,0.0,0.0,0.0,0.0,0.0,0.0,0.0
271.000004038,speed,0.0,0.0,0.0,-0.0006826831835359826,0.0,0.0,0.0,0.0,0.0,0.0,0.0
271.050004038,pos,524.1560720125426,-5912.307956735241,694.3976718955357,0.0,0.0,0.0,0.0,0.0,0.0,0.0,0.0
271.050004038,imu,0.0,0.0,0.0,0.0,0.0,0.0,-0.572047077115801,0.8202207883023136,2.5586545234546065e-05,-0.25254344940185547,-0.012228385545313358
271.100004039,speed,0.0,0.0,0.0,-0.0006301565409099449,0.0,0.0,0.0,0.0,0.0,0.0,0.0
271.100004039,imu,0.0,0.0,0.0,0.0,0.0,0.0,-0.5720469793378595,0.8202208564956334,0.0012430708156898618,-0.24318036437034607,0.004983621649444103
271.100004039,pos,524.7049012514184,-5912.950014220479,694.3976414902706,0.0,0.0,0.0,0.0,0.0,0.0,0.0,0.0
271.15000404,speed,0.0,0.0,0.0,-0.0005360712033368224,0.0,0.0,0.0,0.0,0.0,0.0,0.0
271.15000404,pos,524.8026405024895,-5913.879176559609,694.3976118876607,0.0,0.0,0.0,0.0,0.0,0.0,0.0,0.0
271.15000404,imu,0.0,0.0,0.0,0.0,0.0,0.0,-0.5720466860039862,0.820221061075523,0.0016176026547327638,-0.256698876619339,-0.03303661197423935
271.15000404,speed,0.0,0.0,0.0,0.03222544356553691,0.0,0.0,0.0,0.0,0.0,0.0,0.0
271.15000404,imu,0.0,0.0,0.0,0.0,0.0,0.0,-0.5720774856612046,0.8201995796143486,0.011084569618105888,0.7526739239692688,-0.08277206867933273
271.15000404,pos,525.0170093621117,-5912.606192926019,694.3974597325041,0.0,0.0,0.0,0.0,0.0,0.0,0.0,0.0
271.250004041,speed,0.0,0.0,0.0,0.11502797962877151,0.0,0.0,0.0,0.0,0.0,0.0,0.0
271.250004041,pos,524.1318160273803,-5913.511653028992,694.3972207931688,0.0,0.0,0.0,0.0,0.0,0.0,0.0,0.0
271.250004041,imu,0.0,0.0,0.0,0.0,0.0,0.0,-0.5722435943466438,0.8200836961732831,0.013574098236858845,0.8892874717712402,-0.0690985769033432
271.300004042,speed,0.0,0.0,0.0,0.3045072470660125,0.0,0.0,0.0,0.0,0.0,0.0,0.0
271.300004042,pos,524.4015567269065,-5913.3826380763885,694.3967910535121,0.0,0.0,0.0,0.0,0.0,0.0,0.0,0.0
271.300004042,imu,0.0,0.0,0.0,0.0,0.0,0.0,-0.5724110480261124,0.8199668237786499,-0.009540855884552002,1.9838734865188599,-0.36597469449043274
271.350004043,speed,0.0,0.0,0.0,0.3936854434362325,0.0,0.0,0.0,0.0,0.0,0.0,0.0
271.350004043,pos,524.8929379623809,-5913.014794008751,694.3962466470134,0.0,0.0,0.0,0.0,0.0,0.0,0.0,0.0
271.350004043,imu,0.0,0.0,0.0,0.0,0.0,0.0,-0.573037443367333,0.8195291870940478,-0.015635918825864792,2.680050849914551,-0.3411442041397095
271.400004044,speed,0.0,0.0,0.0,0.5860660120683954,0.0,0.0,0.0,0.0,0.0,0.0,0.0
271.400004044,imu,0.0,0.0,0.0,0.0,0.0,0.0,-0.5740463006735693,0.8188228408410393,-0.05502556264400482,3.1115612983703613,-0.5779678225517273
271.400004044,pos,524.2269056217199,-5913.788430178297,694.3954430589906,0.0,0.0,0.0,0.0,0.0,0.0,0.0,0.0
271.450004044,speed,0.0,0.0,0.0,0.006371879561326985,0.0,0.0,0.0,0.0,0.0,0.0,0.0
271.450004044,imu,0.0,0.0,0.0,0.0,0.0,0.0,-0.5746477240693482,0.8184008756238708,0.0018712664023041725,-8.196609497070312,1.1532288789749146
271.450004044,pos,525.4886957113293,-5913.630672877867,694.3956581770781,0.0,0.0,0.0,0.0,0.0,0.0,0.0,0.0
271.500004045,speed,0.0,0.0,0.0,0.0027723208178490567,0.0,0.0,0.0,0.0,0.0,0.0,0.0
271.500004045,imu,0.0,0.0,0.0,0.0,0.0,0.0,-0.5746468460201348,0.8184014921535221,-0.0011547552421689034,-3.0456643104553223,0.12459906190633774
271.500004045,pos,525.092937050648,-5913.201244684881,694.3959019896868,0.0,0.0,0.0,0.0,0.0,0.0,0.0,0.0
271.550004046,imu,0.0,0.0,0.0,0.0,0.0,0.0,-0.5746463582147305,0.8184018346695879,0.0007342964527197182,-0.2356523871421814,0.02434820495545864
271.550004046,pos,525.142712839654,-5912.597316853516,694.395979482234,0.0,0.0,0.0,0.0,0.0,0.0,0.0,0.0
271.550004046,speed,0.0,0.0,0.0,0.0009717158794250436,0.0,0.0,0.0,0.0,0.0,0.0,0.0
271.600004047,speed,0.0,0.0,0.0,0.00019651668088807185,0.0,0.0,0.0,0.0,0.0,0.0,0.0
271.600004047,pos,525.6881367354763,-5912.254831605069,694.3959978657741,0.0,0.0,0.0,0.0,0.0,0.0,0.0,0.0
271.600004047,imu,0.0,0.0,0.0,0.0,0.0,0.0,-0.57464606553139,0.8184020401790879,-0.0010964774992316961,-0.17729851603507996,-0.04000065475702286
271.650004047,speed,0.0,0.0,0.0,-0.00016309475408162851,0.0,0.0,0.0,0.0,0.0,0.0,0.0
271.650004047,pos,524.6270475081192,-5913.694981148805,694.3959886467132,0.0,0.0,0.0,0.0,0.0,0.0,0.0,0.0
271.650004047,imu,0.0,0.0,0.0,0.0,0.0,0.0,-0.57464606553139,0.8184020401790879,0.00045119563583284616,-0.1739652156829834,-0.04133348912000656
271.700004048,imu,0.0,0.0,0.0,0.0,0.0,0.0,-0.57464606553139,0.8184020401790879,-0.0009883395396173,-0.24903951585292816,-0.014908665791153908
271.700004048,speed,0.0,0.0,0.0,-0.0002685961200964798,0.0,0.0,0.0,0.0,0.0,0.0,0.0
271.700004048,pos,524.2178867703689,-5913.89555992848,694.3959626403464,0.0,0.0,0.0,0.0,0.0,0.0,0.0,0.0
271.750004049,speed,0.0,0.0,0.0,0.08404899646821865,0.0,0.0,0.0,0.0,0.0,0.0,0.0
271.750004049,imu,0.0,0.0,0.0,0.0,0.0,0.0,-0.5749356885153547,0.8181986030734684,-0.02947031892836094,1.3563212156295776,-0.2974672317504883
271.750004049,pos,524.5643690962451,-5913.670310596306,694.3956980942075,0.0,0.0,0.0,0.0,0.0,0.0,0.0,0.0
271.80000405,speed,0.0,0.0,0.0,0.00045870627430010755,0.0,0.0,0.0,0.0,0.0,0.0,0.0
271.80000405,pos,524.6500787241262,-5913.853909721906,694.3956898658618,0.0,0.0,0.0,0.0,0.0,0.0,0.0,0.0
271.80000405,imu,0.0,0.0,0.0,0.0,0.0,0.0,-0.575015373414635,0.8181426039125623,0.0009244154789485037,-1.3115347623825073,0.21828129887580872
271.85000405,speed,0.0,0.0,0.0,0.09656696529610756,0.0,0.0,0.0,0.0,0.0,0.0,0.0
271.85000405,imu,0.0,0.0,0.0,0.0,0.0,0.0,-0.5750697939932442,0.8181043527793797,-0.012493024580180645,-0.37931957840919495,-0.031960517168045044
271.85000405,pos,524.4327889624237,-5913.656276706858,694.3956317868433,0.0,0.0,0.0,0.0,0.0,0.0,0.0,0.0
271.900004051,speed,0.0,0.0,0.0,0.17351979016877248,0.0,0.0,0.0,0.0,0.0,0.0,0.0
271.900004051,imu,0.0,0.0,0.0,0.0,0.0,0.0,-0.5753754967040944,0.8178893799240314,-0.03299166262149811,2.483743667602539,-0.4862176775932312
271.900004051,pos,525.0196205884503,-5912.761739028858,694.3952979470068,0.0,0.0,0.0,0.0,0.0,0.0,0.0,0.0
271.950004052,imu,0.0,0.0,0.0,0.0,0.0,0.0,-0.5760551654251144,0.8174108186138987,-0.03625830262899399,2.825918197631836,-0.26547297835350037
271.950004052,pos,524.111569637743,-5913.509923840068,694.3947170790075,0.0,0.0,0.0,0.0,0.0,0.0,0.0,0.0
271.950004052,speed,0.0,0.0,0.0,0.37975595406997026,0.0,0.0,0.0,0.0,0.0,0.0,0.0
272.000004053,speed,0.0,0.0,0.0,0.002889927538503444,0.0,0.0,0.0,0.0,0.0,0.0,0.0
272.000004053,imu,0.0,0.0,0.0,0.0,0.0,0.0,-0.576303910627544,0.8172354633735615,-0.00024162177578546107,-5.651485443115234,0.783606767654419
272.000004053,pos,523.4149680852647,-5913.5445131931265,694.394869219472,0.0,0.0,0.0,0.0,0.0,0.0,0.0,0.0
272.050004053,imu,0.0,0.0,0.0,0.0,0.0,0.0,-0.5763609011306315,0.817195271430205,-0.01238557230681181,-0.5159197449684143,-0.06748737394809723
272.050004053,pos,523.721630913501,-5912.809368261291,694.394964071103,0.0,0.0,0.0,0.0,0.0,0.0,0.0,0.0
272.050004053,speed,0.0,0.0,0.0,0.08597521610703249,0.0,0.0,0.0,0.0,0.0,0.0,0.0
272.100004054,speed,0.0,0.0,0.0,0.0008619710861838834,0.0,0.0,0.0,0.0,0.0,0.0,0.0
272.100004054,imu,0.0,0.0,0.0,0.0,0.0,0.0,-0.5763869112491623,0.8171769260941294,0.0018485307227820158,-0.49316105246543884,0.006965142674744129
272.100004054,pos,524.2208782260664,-5913.864739634111,694.3950199338489,0.0,0.0,0.0,0.0,0.0,0.0,0.0,0.0
272.150004055,speed,0.0,0.0,0.0,0.00023978529455747822,0.0,0.0,0.0,0.0,0.0,0.0,0.0
272.150004055,pos,525.4167930816042,-5913.855193187395,694.3950144664591,0.0,0.0,0.0,0.0,0.0,0.0,0.0,0.0
272.150004055,imu,0.0,0.0,0.0,0.0,0.0,0.0,-0.5763869112491623,0.8171769260941294,-0.000619028985965997,-0.5514889359474182,-0.03440965339541435
272.200004056,speed,0.0,0.0,0.0,-7.665788908521239e-05,0.0,0.0,0.0,0.0,0.0,0.0,0.0
272.200004056,pos,524.2828083044603,-5914.012994988688,694.3950218727275,0.0,0.0,0.0,0.0,0.0,0.0,0.0,0.0
272.200004056,imu,0.0,0.0,0.0,0.0,0.0,0.0,-0.5763869112491623,0.8171769260941294,0.0005596661358140409,-0.23957642912864685,0.0018555737333372235
272.250004056,speed,0.0,0.0,0.0,-0.00013080354391477227,0.0,0.0,0.0,0.0,0.0,0.0,0.0
272.250004056,pos,524.9258102954415,-5913.341758443292,694.3950131292731,0.0,0.0,0.0,0.0,0.0,0.0,0.0,0.0
272.250004056,imu,0.0,0.0,0.0,0.0,0.0,0.0,-0.5763869112491623,0.8171769260941294,0.0009038436692208052,-0.2469910979270935,-0.013934786431491375
272.250004056,speed,0.0,0.0,0.0,-0.00012369927890486902,0.0,0.0,0.0,0.0,0.0,0.0,0.0
272.250004056,imu,0.0,0.0,0.0,0.0,0.0,0.0,-0.5763863267585301,0.8171773383579656,0.0004718204727396369,-0.20879679918289185,-0.02831217646598816
272.300004057,pos,524.1661330185482,-5913.40945066164,694.3950106873117,0.0,0.0,0.0,0.0,0.0,0.0,0.0,0.0
272.350004058,pos,525.1170558415122,-5913.67783309451,694.3949826482226,0.0,0.0,0.0,0.0,0.0,0.0,0.0,0.0
272.350004058,speed,0.0,0.0,0.0,-0.00018499098645109895,0.0,0.0,0.0,0.0,0.0,0.0,0.0
272.350004058,imu,0.0,0.0,0.0,0.0,0.0,0.0,-0.576386229343396,0.8171774070685643,-0.0003092473198194057,-0.28297579288482666,-0.002388398628681898
272.400004059,pos,523.8464089270838,-5913.926528817118,694.3949855628857,0.0,0.0,0.0,0.0,0.0,0.0,0.0,0.0
272.400004059,imu,0.0,0.0,0.0,0.0,0.0,0.0,-0.5763859370979448,0.8171776132002908,0.0010566673008725047,-0.20879578590393066,-0.02898506633937359
272.400004059,speed,0.0,0.0,0.0,-0.00015275299072841126,0.0,0.0,0.0,0.0,0.0,0.0,0.0
272.450004059,speed,0.0,0.0,0.0,-7.745446728906474e-05,0.0,0.0,0.0,0.0,0.0,0.0,0.0
272.450004059,pos,524.7036687159265,-5912.660436955258,694.3949895859414,0.0,0.0,0.0,0.0,0.0,0.0,0.0,0.0
272.450004059,imu,0.0,0.0,0.0,0.0,0.0,0.0,-0.5763859370979448,0.8171776132002908,-0.00022299237025436014,-0.2824590504169464,-0.00226803682744503
272.50000406,speed,0.0,0.0,0.0,0.059239497661550275,0.0,0.0,0.0,0.0,0.0,0.0,0.0
272.50000406,pos,523.6069247657292,-5913.721964342536,694.3949324785772,0.0,0.0,0.0,0.0,0.0,0.0,0.0,0.0
272.50000406,imu,0.0,0.0,0.0,0.0,0.0,0.0,-0.5765536738627202,0.8170592764025142,-0.003836441319435835,0.7327306866645813,-0.024255843833088875
272.550004061,speed,0.0,0.0,0.0,0.10897723835690935,0.0,0.0,0.0,0.0,0.0,0.0,0.0
272.550004061,imu,0.0,0.0,0.0,0.0,0.0,0.0,-0.5766596413618027,0.8169844906878447,0.018549736589193344,0.6616237759590149,-0.23342181742191315
272.550004061,pos,524.5705068132212,-5913.454474771645,694.3947149835533,0.0,0.0,0.0,0.0,0.0,0.0,0.0,0.0
272.600004062,speed,0.0,0.0,0.0,0.26052301410006584,0.0,0.0,0.0,0.0,0.0,0.0,0.0
272.600004062,pos,524.2875082392916,-5913.4146850718,694.3943793176356,0.0,0.0,0.0,0.0,0.0,0.0,0.0,0.0
272.600004062,imu,0.0,0.0,0.0,0.0,0.0,0.0,-0.5770423291766514,0.8167142403181085,-0.02670249156653881,2.0798850059509277,-0.0774141252040863
272.650004062,speed,0.0,0.0,0.0,0.40606896969220413,0.0,0.0,0.0,0.0,0.0,0.0,0.0
272.650004062,imu,0.0,0.0,0.0,0.0,0.0,0.0,-0.5773325226697873,0.8165091293229608,-0.014358026906847954,2.5000181198120117,-0.34993916749954224
272.650004062,pos,523.8071717808339,-5912.8803249016455,694.3938274317625,0.0,0.0,0.0,0.0,0.0,0.0,0.0,0.0
272.700004063,imu,0.0,0.0,0.0,0.0,0.0,0.0,-0.5777754114236644,0.816195793884173,-0.009463746100664139,2.5671544075012207,0.1839686930179596
272.700004063,speed,0.0,0.0,0.0,0.5192578010031356,0.0,0.0,0.0,0.0,0.0,0.0,0.0
272.700004063,pos,525.3678460174505,-5913.725151858198,694.3930578262734,0.0,0.0,0.0,0.0,0.0,0.0,0.0,0.0
272.750004064,imu,0.0,0.0,0.0,0.0,0.0,0.0,-0.5782503229758333,0.8158594020898113,-0.010404394939541817,3.9370052814483643,-0.16602201759815216
272.750004064,speed,0.0,0.0,0.0,0.7205956124693785,0.0,0.0,0.0,0.0,0.0,0.0,0.0
272.750004064,pos,525.0984293055949,-5912.876587715121,694.3920263899975,0.0,0.0,0.0,0.0,0.0,0.0,0.0,0.0
272.800004065,imu,0.0,0.0,0.0,0.0,0.0,0.0,-0.578370722106582,0.81577405438633,-0.002032009419053793,-9.31091594696045,0.34478071331977844
272.800004065,speed,0.0,0.0,0.0,0.009576189047629378,0.0,0.0,0.0,0.0,0.0,0.0,0.0
272.800004065,pos,525.5271510707072,-5913.694979369787,694.3921496037291,0.0,0.0,0.0,0.0,0.0,0.0,0.0,0.0
272.850004065,speed,0.0,0.0,0.0,0.004179293382683761,0.0,0.0,0.0,0.0,0.0,0.0,0.0
272.850004065,pos,523.944871630694,-5914.185669036723,694.3924858373908,0.0,0.0,0.0,0.0,0.0,0.0,0.0,0.0
272.850004065,imu,0.0,0.0,0.0,0.0,0.0,0.0,-0.5783705276108747,0.8157741922806325,-0.002267773263156414,-5.235368251800537,0.14342106878757477
272.900004066,speed,0.0,0.0,0.0,0.0015671001637450762,0.0,0.0,0.0,0.0,0.0,0.0,0.0
272.900004066,imu,0.0,0.0,0.0,0.0,0.0,0.0,-0.5783701386193614,0.8157744680690986,-0.00022513544536195695,-0.21155187487602234,-0.029504353180527687
272.900004066,pos,525.258936666479,-5913.45158431109,694.3926455373798,0.0,0.0,0.0,0.0,0.0,0.0,0.0,0.0
272.950004067,speed,0.0,0.0,0.0,0.00033330652182524166,0.0,0.0,0.0,0.0,0.0,0.0,0.0
272.950004067,imu,0.0,0.0,0.0,0.0,0.0,0.0,-0.5783699441235554,0.815774605963262,0.0014381229411810637,-0.08329170942306519,-0.013675251975655556
272.950004067,pos,523.657220431164,-5914.135209238586,694.3927019842268,0.0,0.0,0.0,0.0,0.0,0.0,0.0,0.0
273.000004068,speed,0.0,0.0,0.0,0.0018688663105265629,0.0,0.0,0.0,0.0,0.0,0.0,0.0
273.000004068,imu,0.0,0.0,0.0,0.0,0.0,0.0,-0.5783673184269568,0.8157764675299302,0.0018424477893859148,-0.25280311703681946,-0.016692109405994415
273.000004068,pos,523.5633402655847,-5913.277860086559,694.3926429579724,0.0,0.0,0.0,0.0,0.0,0.0,0.0,0.0
273.050004068,imu,0.0,0.0,0.0,0.0,0.0,0.0,-0.5784035914088439,0.8157507495830765,-0.0006865737959742546,0.32933589816093445,-0.0507519468665123
273.050004068,speed,0.0,0.0,0.0,-0.00020853310422205054,0.0,0.0,0.0,0.0,0.0,0.0,0.0
273.050004068,pos,524.0906129581464,-5913.319519244707,694.3925813624921,0.0,0.0,0.0,0.0,0.0,0.0,0.0,0.0
273.100004069,speed,0.0,0.0,0.0,-0.00033333155530466697,0.0,0.0,0.0,0.0,0.0,0.0,0.0
273.100004069,imu,0.0,0.0,0.0,0.0,0.0,0.0,-0.5784034941637725,0.8157508185341519,-0.0007898444891907275,-0.79412841796875,0.003681353759020567
273.100004069,pos,525.0311664979214,-5913.771881757891,694.3925738964458,0.0,0.0,0.0,0.0,0.0,0.0,0.0,0.0
273.15000407,pos,524.2312378552775,-5913.662412297112,694.392519248106,0.0,0.0,0.0,0.0,0.0,0.0,0.0,0.0
273.15000407,imu,0.0,0.0,0.0,0.0,0.0,0.0,-0.5784035914088439,0.8157507495830765,-0.0012411363422870636,-0.2494364231824875,-0.017695460468530655
273.15000407,speed,0.0,0.0,0.0,-0.0003655994741046728,0.0,0.0,0.0,0.0,0.0,0.0,0.0
273.20000407,speed,0.0,0.0,0.0,-0.0004084437295102785,0.0,0.0,0.0,0.0,0.0,0.0,0.0
273.20000407,pos,524.3442944860435,-5913.227823846566,694.392491511097,0.0,0.0,0.0,0.0,0.0,0.0,0.0,0.0
273.20000407,imu,0.0,0.0,0.0,0.0,0.0,0.0,-0.5784032024285088,0.8157510253873086,-0.0012508915970101953,-0.2865735590457916,-0.005120635032653809
273.250004071,imu,0.0,0.0,0.0,0.0,0.0,0.0,-0.5784038831440088,0.8157505427297808,0.0010389548260718584,-0.21005728840827942,-0.03193238005042076
273.250004071,pos,524.2858879082473,-5913.743545269525,694.392486134469,0.0,0.0,0.0,0.0,0.0,0.0,0.0,0.0
273.250004071,speed,0.0,0.0,0.0,-0.0026982676581718125,0.0,0.0,0.0,0.0,0.0,0.0,0.0
273.300004072,imu,0.0,0.0,0.0,0.0,0.0,0.0,-0.5785567421940704,0.8156421372524743,-0.004850602243095636,0.7673994302749634,-0.03589681535959244
273.300004072,speed,0.0,0.0,0.0,0.055445150196255004,0.0,0.0,0.0,0.0,0.0,0.0,0.0
273.300004072,pos,524.3133363151674,-5914.037461097838,694.3923684435463,0.0,0.0,0.0,0.0,0.0,0.0,0.0,0.0
273.350004073,speed,0.0,0.0,0.0,0.05782036776292003,0.0,0.0,0.0,0.0,0.0,0.0,0.0
273.350004073,imu,0.0,0.0,0.0,0.0,0.0,0.0,-0.5785881477398435,0.8156198595516033,7.4430150561966e-05,-0.1187342181801796,-0.021604642271995544
273.350004073,pos,524.5511475369588,-5913.026879625788,694.3922421676139,0.0,0.0,0.0,0.0,0.0,0.0,0.0,0.0
273.400004073,speed,0.0,0.0,0.0,0.07859688728901114,0.0,0.0,0.0,0.0,0.0,0.0,0.0
273.400004073,imu,0.0,0.0,0.0,0.0,0.0,0.0,-0.578648136754021,0.8155773009538089,-0.003953174687922001,0.04275946319103241,-0.05446939170360565
273.400004073,pos,524.150669690801,-5913.200845054275,694.3920879194113,0.0,0.0,0.0,0.0,0.0,0.0,0.0,0.0
273.450004074,speed,0.0,0.0,0.0,0.2587221794694616,0.0,0.0,0.0,0.0,0.0,0.0,0.0
273.450004074,imu,0.0,0.0,0.0,0.0,0.0,0.0,-0.5786681648040095,0.8155630907798365,-0.01131673064082861,2.175248384475708,-0.1652577668428421
273.450004074,pos,524.1769850934937,-5913.12590149487,694.3917164998379,0.0,0.0,0.0,0.0,0.0,0.0,0.0,0.0
273.500004075,speed,0.0,0.0,0.0,0.4346052952754222,0.0,0.0,0.0,0.0,0.0,0.0,0.0
273.500004075,pos,524.1437177972111,-5913.843333377274,694.3910937708806,0.0,0.0,0.0,0.0,0.0,0.0,0.0,0.0
273.500004075,imu,0.0,0.0,0.0,0.0,0.0,0.0,-0.578869786988465,0.8154199958990024,-0.01749042235314846,3.6761038303375244,-0.006416259799152613
273.550004076,speed,0.0,0.0,0.0,0.5884353419684765,0.0,0.0,0.0,0.0,0.0,0.0,0.0
273.550004076,imu,0.0,0.0,0.0,0.0,0.0,0.0,-0.57929226215652,0.8151199144945372,-0.03002128191292286,2.8952133655548096,-0.32536593079566956
273.550004076,pos,523.6283123700096,-5913.688019003845,694.3902642653434,0.0,0.0,0.0,0.0,0.0,0.0,0.0,0.0
273.600004076,speed,0.0,0.0,0.0,0.7948261929233933,0.0,0.0,0.0,0.0,0.0,0.0,0.0
273.600004076,pos,524.7298135893781,-5913.949529627719,694.3891611070983,0.0,0.0,0.0,0.0,0.0,0.0,0.0,0.0
273.600004076,imu,0.0,0.0,0.0,0.0,0.0,0.0,-0.5797783970689896,0.8147742081657426,-0.0024644886143505573,3.8816990852355957,-0.19655370712280273
273.600004076,imu,0.0,0.0,0.0,0.0,0.0,0.0,-0.580075863481403,0.814562454699641,-0.001544442493468523,-10.245750427246094,0.5416522026062012
273.600004076,pos,524.3061961042558,-5914.040249385581,694.3893131797887,0.0,0.0,0.0,0.0,0.0,0.0,0.0,0.0
273.650004077,speed,0.0,0.0,0.0,0.010399882560966932,0.0,0.0,0.0,0.0,0.0,0.0,0.0
273.700004078,speed,0.0,0.0,0.0,0.004420580938431996,0.0,0.0,0.0,0.0,0.0,0.0,0.0
273.700004078,imu,0.0,0.0,0.0,0.0,0.0,0.0,-0.5800769316184311,0.8145616940441933,0.00048175948904827237,-5.434250831604004,0.03971360996365547
273.700004078,pos,523.2764565187978,-5913.143885180951,694.38970653363,0.0,0.0,0.0,0.0,0.0,0.0,0.0,0.0
273.750004079,speed,0.0,0.0,0.0,0.001622022601390888,0.0,0.0,0.0,0.0,0.0,0.0,0.0
273.750004079,pos,525.7807987574963,-5912.878755547407,694.3898273724844,0.0,0.0,0.0,0.0,0.0,0.0,0.0,0.0
273.750004079,imu,0.0,0.0,0.0,0.0,0.0,0.0,-0.5800773200316485,0.8145614174418652,9.146598313236609e-05,-0.1618659347295761,-0.00607445789501071
273.800004079,speed,0.0,0.0,0.0,0.00023564725769511122,0.0,0.0,0.0,0.0,0.0,0.0,0.0
273.800004079,imu,0.0,0.0,0.0,0.0,0.0,0.0,-0.5800771258250562,0.8145615557430524,0.0005269958637654781,-0.17319239675998688,-0.024726975709199905
273.800004079,pos,524.9727236443357,-5913.836382583849,694.3898636478714,0.0,0.0,0.0,0.0,0.0,0.0,0.0,0.0
273.85000408,speed,0.0,0.0,0.0,-0.0003629966211009608,0.0,0.0,0.0,0.0,0.0,0.0,0.0
273.85000408,imu,0.0,0.0,0.0,0.0,0.0,0.0,-0.5800771258250562,0.8145615557430524,0.0008345487294718623,-0.21040096879005432,-0.010547812096774578
273.85000408,pos,525.1018344615513,-5914.030399427398,694.389866768498,0.0,0.0,0.0,0.0,0.0,0.0,0.0,0.0
273.900004081,speed,0.0,0.0,0.0,-0.0005657631579574833,0.0,0.0,0.0,0.0,0.0,0.0,0.0
273.900004081,imu,0.0,0.0,0.0,0.0,0.0,0.0,-0.580076834515106,0.8145617631947465,0.0022742105647921562,-0.21648390591144562,-0.031890008598566055
273.900004081,pos,525.64754776474,-5912.802596223471,694.3898345091584,0.0,0.0,0.0,0.0,0.0,0.0,0.0,0.0
273.950004082,imu,0.0,0.0,0.0,0.0,0.0,0.0,-0.5800765432050817,0.8145619706463364,-0.0006989433313719928,-0.24446547031402588,-0.002197145251557231
273.950004082,pos,525.0751847205258,-5913.237934997427,694.3897987564881,0.0,0.0,0.0,0.0,0.0,0.0,0.0,0.0
273.950004082,speed,0.0,0.0,0.0,-0.0005609081055786764,0.0,0.0,0.0,0.0,0.0,0.0,0.0
274.000004082,speed,0.0,0.0,0.0,-0.0004760285336601978,0.0,0.0,0.0,0.0,0.0,0.0,0.0
274.000004082,imu,0.0,0.0,0.0,0.0,0.0,0.0,-0.5800763489983576,0.8145621089473384,0.000754658249206841,-0.2951239049434662,-0.02374594658613205
274.000004082,pos,524.4465555741085,-5914.109149650745,694.3897740427601,0.0,0.0,0.0,0.0,0.0,0.0,0.0,0.0
274.050004083,speed,0.0,0.0,0.0,-0.0003956427505769894,0.0,0.0,0.0,0.0,0.0,0.0,0.0
274.050004083,imu,0.0,0.0,0.0,0.0,0.0,0.0,-0.5800763489983576,0.8145621089473384,-0.001407239818945527,-0.20308470726013184,-0.014584731310606003
274.050004083,pos,523.8132501320524,-5913.598501092794,694.3897061924356,0.0,0.0,0.0,0.0,0.0,0.0,0.0,0.0
274.100004084,speed,0.0,0.0,0.0,-0.00012680965425434745,0.0,0.0,0.0,0.0,0.0,0.0,0.0
274.100004084,imu,0.0,0.0,0.0,0.0,0.0,0.0,-0.5800762518949832,0.814562178097822,-3.6336987250251696e-05,-0.25595515966415405,-0.039492253214120865
274.100004084,pos,525.1444819500388,-5913.904139321321,694.3897097530719,0.0,0.0,0.0,0.0,0.0,0.0,0.0,0.0
274.150004085,speed,0.0,0.0,0.0,-0.0002182684260030943,0.0,0.0,0.0,0.0,0.0,0.0,0.0
274.150004085,pos,524.2281905379033,-5913.373209435435,694.389706879733,0.0,0.0,0.0,0.0,0.0,0.0,0.0,0.0
274.150004085,imu,0.0,0.0,0.0,0.0,0.0,0.0,-0.5800759605848105,0.8145623855492036,0.0009533044649288058,-0.27857595682144165,0.013516192324459553
274.200004085,speed,0.0,0.0,0.0,0.01496807461487358,0.0,0.0,0.0,0.0,0.0,0.0,0.0
274.200004085,imu,0.0,0.0,0.0,0.0,0.0,0.0,-0.5801046057300812,0.814541985664795,-0.008284796960651875,0.38669925928115845,-0.1544824242591858
274.200004085,pos,523.9061207125037,-5913.556477905245,694.3896771817771,0.0,0.0,0.0,0.0,0.0,0.0,0.0,0.0
274.200004085,imu,0.0,0.0,0.0,0.0,0.0,0.0,-0.5801550971206281,0.814506024093717,0.002636877354234457,0.41547417640686035,-0.07900239527225494
274.200004085,pos,524.4624012057146,-5913.88946439994,694.3894932758651,0.0,0.0,0.0,0.0,0.0,0.0,0.0,0.0
274.250004086,speed,0.0,0.0,0.0,0.0974107381384589,0.0,0.0,0.0,0.0,0.0,0.0,0.0
274.250004086,speed,0.0,0.0,0.0,0.20393620409431093,0.0,0.0,0.0,0.0,0.0,0.0,0.0
274.300004087,pos,525.0899909938273,-5913.565376642785,694.3891554537654,0.0,0.0,0.0,0.0,0.0,0.0,0.0,0.0
274.300004087,imu,0.0,0.0,0.0,0.0,0.0,0.0,-0.5804408169533202,0.81430243645378,-0.028410568833351135,1.5579824447631836,-0.09239298850297928
274.350004088,speed,0.0,0.0,0.0,0.3088256659216288,0.0,0.0,0.0,0.0,0.0,0.0,0.0
274.350004088,pos,523.8472899369252,-5914.876718852412,694.3887000851405,0.0,0.0,0.0,0.0,0.0,0.0,0.0,0.0
274.350004088,imu,0.0,0.0,0.0,0.0,0.0,0.0,-0.5805721483802055,0.8142088064650201,-0.019878191873431206,2.2794551849365234,-0.102984219789505
274.400004088,speed,0.0,0.0,0.0,0.5366794893302284,0.0,0.0,0.0,0.0,0.0,0.0,0.0
274.400004088,imu,0.0,0.0,0.0,0.0,0.0,0.0,-0.5808733867581045,0.8139939241518757,-0.027071325108408928,3.2437777519226074,-0.03054153546690941
274.400004088,pos,525.1879530699407,-5913.655095026783,694.3879919673809,0.0,0.0,0.0,0.0,0.0,0.0,0.0,0.0
274.450004089,imu,0.0,0.0,0.0,0.0,0.0,0.0,-0.5809116181585109,0.8139666405255565,0.0005842589307576418,-7.2159600257873535,0.2406066209077835
274.450004089,speed,0.0,0.0,0.0,0.005274643903236534,0.0,0.0,0.0,0.0,0.0,0.0,0.0
274.450004089,pos,525.0064990633655,-5913.657973438302,694.3881193147222,0.0,0.0,0.0,0.0,0.0,0.0,0.0,0.0
274.50000409,speed,0.0,0.0,0.0,0.1052298680532964,0.0,0.0,0.0,0.0,0.0,0.0,0.0
274.50000409,pos,524.092821540403,-5913.172192530443,694.3882432642292,0.0,0.0,0.0,0.0,0.0,0.0,0.0,0.0
274.50000409,imu,0.0,0.0,0.0,0.0,0.0,0.0,-0.5809578046384944,0.8139336761859783,-0.01064279954880476,-1.6797723770141602,-0.012514452449977398
274.550004091,speed,0.0,0.0,0.0,0.0014968354445634136,0.0,0.0,0.0,0.0,0.0,0.0,0.0
274.550004091,imu,0.0,0.0,0.0,0.0,0.0,0.0,-0.5810072880769758,0.8138983543425051,0.0014476166106760502,-0.4037935733795166,0.014051496051251888
274.550004091,pos,524.5817342091494,-5912.211082131717,694.3883134016414,0.0,0.0,0.0,0.0,0.0,0.0,0.0,0.0
274.600004091,speed,0.0,0.0,0.0,0.00046443728228039567,0.0,0.0,0.0,0.0,0.0,0.0,0.0
274.600004091,imu,0.0,0.0,0.0,0.0,0.0,0.0,-0.5810072880769758,0.8138983543425051,7.88651050243061e-06,-0.7854253649711609,0.016134988516569138
274.600004091,pos,524.8427603728228,-5913.81649187087,694.3883424886571,0.0,0.0,0.0,0.0,0.0,0.0,0.0,0.0
274.650004092,pos,524.2084085489095,-5914.195971585284,694.3883319948482,0.0,0.0,0.0,0.0,0.0,0.0,0.0,0.0
274.650004092,imu,0.0,0.0,0.0,0.0,0.0,0.0,-0.5810069970042049,0.8138985621268512,0.0014198167482391,-0.21768580377101898,-0.050282515585422516
274.650004092,speed,0.0,0.0,0.0,3.278524903061045e-05,0.0,0.0,0.0,0.0,0.0,0.0,0.0
274.700004093,pos,524.8232481582197,-5913.670737285742,694.3883123721043,0.0,0.0,0.0,0.0,0.0,0.0,0.0,0.0
274.700004093,imu,0.0,0.0,0.0,0.0,0.0,0.0,-0.5810068029556497,0.8138987006496907,0.0002897946978919208,-0.24284060299396515,-0.00018716408521868289
274.700004093,speed,0.0,0.0,0.0,-0.0002008677035667445,0.0,0.0,0.0,0.0,0.0,0.0,0.0
274.750004094,speed,0.0,0.0,0.0,-0.00022441323151709173,0.0,0.0,0.0,0.0,0.0,0.0,0.0
274.750004094,imu,0.0,0.0,0.0,0.0,0.0,0.0,-0.5810064148584402,0.813898977695231,0.0005327688413672149,-0.20327728986740112,-0.013781207613646984
274.750004094,pos,524.486242225008,-5913.716272114823,694.3883106109265,0.0,0.0,0.0,0.0,0.0,0.0,0.0,0.0
274.800004094,speed,0.0,0.0,0.0,-0.00026482027918302666,0.0,0.0,0.0,0.0,0.0,0.0,0.0
274.800004094,pos,524.701109166654,-5912.642555845469,694.3882826829836,0.0,0.0,0.0,0.0,0.0,0.0,0.0,0.0
274.800004094,imu,0.0,0.0,0.0,0.0,0.0,0.0,-0.5810065118827549,0.8138989084338633,-0.000284255133010447,-0.2516205608844757,-0.037402570247650146
274.800004094,speed,0.0,0.0,0.0,-0.0002294672606235056,0.0,0.0,0.0,0.0,0.0,0.0,0.0
274.850004095,imu,0.0,0.0,0.0,0.0,0.0,0.0,-0.5810065118827549,0.8138989084338633,-0.0004057757032569498,-0.28679153323173523,-0.006261305417865515
274.850004095,pos,524.9999493489515,-5912.582465292811,694.3882848822186,0.0,0.0,0.0,0.0,0.0,0.0,0.0,0.0
274.900004096,imu,0.0,0.0,0.0,0.0,0.0,0.0,-0.5810897557020338,0.8138394779181891,-0.0032088567968457937,1.2960104942321777,-0.1034797877073288
274.900004096,speed,0.0,0.0,0.0,0.08552146349952716,0.0,0.0,0.0,0.0,0.0,0.0,0.0
274.900004096,pos,524.2870269469004,-5912.740588021603,694.3881147432749,0.0,0.0,0.0,0.0,0.0,0.0,0.0,0.0
274.950004097,speed,0.0,0.0,0.0,0.11130810235538256,0.0,0.0,0.0,0.0,0.0,0.0,0.0
274.950004097,pos,523.6460673187208,-5913.907211300095,694.3878752006995,0.0,0.0,0.0,0.0,0.0,0.0,0.0,0.0
274.950004097,imu,0.0,0.0,0.0,0.0,0.0,0.0,-0.5812637913155275,0.8137151866012449,-0.012886124663054943,0.2854475975036621,-0.0961095541715622
275.000004097,speed,0.0,0.0,0.0,0.2558916548727306,0.0,0.0,0.0,0.0,0.0,0.0,0.0
275.000004097,imu,0.0,0.0,0.0,0.0,0.0,0.0,-0.5816031521706401,0.8134726629611934,-0.014423511922359467,1.4833391904830933,-0.31511884927749634
275.000004097,pos,525.4055733273229,-5914.059560583592,694.387597311284,0.0,0.0,0.0,0.0,0.0,0.0,0.0,0.0
275.050004098,speed,0.0,0.0,0.0,0.36857781328598066,0.0,0.0,0.0,0.0,0.0,0.0,0.0
275.050004098,imu,0.0,0.0,0.0,0.0,0.0,0.0,-0.5823570650151852,0.812933114608391,-0.016168296337127686,3.373866319656372,-0.621552050113678
275.050004098,pos,524.5739724442658,-5914.574597867447,694.387019006956,0.0,0.0,0.0,0.0,0.0,0.0,0.0,0.0
275.100004099,speed,0.0,0.0,0.0,0.5826695649216009,0.0,0.0,0.0,0.0,0.0,0.0,0.0
275.100004099,imu,0.0,0.0,0.0,0.0,0.0,0.0,-0.5833316491786397,0.8122340715991472,-0.04975055158138275,2.9245641231536865,-0.22870206832885742
275.100004099,pos,525.0524197064154,-5914.220099807045,694.386167503055,0.0,0.0,0.0,0.0,0.0,0.0,0.0,0.0
275.1500041,imu,0.0,0.0,0.0,0.0,0.0,0.0,-0.5840084527875999,0.8117475759573499,-0.03632475435733795,4.15383768081665,0.1515369713306427
275.1500041,speed,0.0,0.0,0.0,0.7821970011524831,0.0,0.0,0.0,0.0,0.0,0.0,0.0
275.1500041,pos,524.800219701577,-5912.628742349578,694.3850740472158,0.0,0.0,0.0,0.0,0.0,0.0,0.0,0.0
275.2000041,pos,524.193419595323,-5913.800931595249,694.3838146826251,0.0,0.0,0.0,0.0,0.0,0.0,0.0,0.0
275.2000041,imu,0.0,0.0,0.0,0.0,0.0,0.0,-0.5849946661729963,0.8110371388223504,-0.05543426424264908,3.02876877784729,-0.3300492763519287
275.2000041,speed,0.0,0.0,0.0,0.984266507389347,0.0,0.0,0.0,0.0,0.0,0.0,0.0
275.2000041,pos,524.6408856233277,-5914.249774012533,694.382371208535,0.0,0.0,0.0,0.0,0.0,0.0,0.0,0.0
275.250004101,imu,0.0,0.0,0.0,0.0,0.0,0.0,-0.586783907705226,0.809743567839958,-0.11683553457260132,3.96408748626709,-1.2170631885528564
275.250004101,speed,0.0,0.0,0.0,1.1975757041323594,0.0,0.0,0.0,0.0,0.0,0.0,0.0
275.300004102,speed,0.0,0.0,0.0,1.399201386987232,0.0,0.0,0.0,0.0,0.0,0.0,0.0
275.300004102,pos,525.035497321752,-5913.874860552866,694.3806115818002,0.0,0.0,0.0,0.0,0.0,0.0,0.0,0.0
275.300004102,imu,0.0,0.0,0.0,0.0,0.0,0.0,-0.5889770101399858,0.8081497890407217,-0.11098192632198334,3.917698621749878,-0.7424134612083435
275.350004103,speed,0.0,0.0,0.0,1.5319302952045752,0.0,0.0,0.0,0.0,0.0,0.0,0.0
275.350004103,pos,524.136177942206,-5913.941019793026,694.3787968417009,0.0,0.0,0.0,0.0,0.0,0.0,0.0,0.0
275.350004103,imu,0.0,0.0,0.0,0.0,0.0,0.0,-0.5912756756684836,0.8064695129778795,-0.12533479928970337,3.077549457550049,-0.07395409047603607
275.400004103,speed,0.0,0.0,0.0,1.5418278192219654,0.0,0.0,0.0,0.0,0.0,0.0,0.0
275.400004103,pos,525.0127686402315,-5915.345334571995,694.3769034834922,0.0,0.0,0.0,0.0,0.0,0.0,0.0,0.0
275.400004103,imu,0.0,0.0,0.0,0.0,0.0,0.0,-0.5934636273906709,0.8048608096834551,-0.10697799921035767,1.2691575288772583,-0.20766691863536835
275.450004104,speed,0.0,0.0,0.0,0.4196966139682345,0.0,0.0,0.0,0.0,0.0,0.0,0.0
275.450004104,pos,525.6380087857341,-5912.586240918714,694.3765461327912,0.0,0.0,0.0,0.0,0.0,0.0,0.0,0.0
275.450004104,imu,0.0,0.0,0.0,0.0,0.0,0.0,-0.594820239218553,0.8038587456860711,-0.026879388839006424,-13.415133476257324,1.442962884902954
275.450004104,speed,0.0,0.0,0.0,0.5396148698145163,0.0,0.0,0.0,0.0,0.0,0.0,0.0
275.500004105,pos,524.8890032077873,-5913.437013461202,694.3768374952679,0.0,0.0,0.0,0.0,0.0,0.0,0.0,0.0
275.500004105,imu,0.0,0.0,0.0,0.0,0.0,0.0,-0.5954880467722541,0.8033641678288655,-0.05277778580784798,-11.207237243652344,0.24770976603031158
275.500004105,speed,0.0,0.0,0.0,0.8557414532502685,0.0,0.0,0.0,0.0,0.0,0.0,0.0
275.550004106,pos,524.8494132265696,-5914.402965264858,694.3759781598537,0.0,0.0,0.0,0.0,0.0,0.0,0.0,0.0
275.550004106,imu,0.0,0.0,0.0,0.0,0.0,0.0,-0.5963578496278411,0.8027187024028138,-0.044012948870658875,7.3791069984436035,-0.38388195633888245
275.600004106,imu,0.0,0.0,0.0,0.0,0.0,0.0,-0.5969096573308059,0.8023084575057275,-0.0012002947041764855,-7.779481887817383,0.7046791315078735
275.600004106,pos,524.399339674798,-5913.418873664365,694.3758873793763,0.0,0.0,0.0,0.0,0.0,0.0,0.0,0.0
275.600004106,speed,0.0,0.0,0.0,0.01742293509384084,0.0,0.0,0.0,0.0,0.0,0.0,0.0
275.600004106,imu,0.0,0.0,0.0,0.0,0.0,0.0,-0.5969083183332776,0.8023094537050767,0.000815199629869312,-7.6735734939575195,0.5478454232215881
275.600004106,pos,525.6055779091914,-5914.483446631824,694.376238785545,0.0,0.0,0.0,0.0,0.0,0.0,0.0,0.0
275.650004107,speed,0.0,0.0,0.0,0.00331457797910918,0.0,0.0,0.0,0.0,0.0,0.0,0.0
275.700004108,speed,0.0,0.0,0.0,9.589651900498866e-06,0.0,0.0,0.0,0.0,0.0,0.0,0.0
275.700004108,pos,524.3874218724485,-5914.160182328823,694.3763185217622,0.0,0.0,0.0,0.0,0.0,0.0,0.0,0.0
275.700004108,imu,0.0,0.0,0.0,0.0,0.0,0.0,-0.5969076488338899,0.8023099518039132,-0.0006596238818019629,-0.09819493442773819,-0.09376754611730576
275.750004108,speed,0.0,0.0,0.0,-0.0014412110729823996,0.0,0.0,0.0,0.0,0.0,0.0,0.0
275.750004108,imu,0.0,0.0,0.0,0.0,0.0,0.0,-0.5969080314050195,0.802309667176075,-0.0011556879617273808,-0.16514094173908234,-0.05497442185878754
275.750004108,pos,523.4796016877915,-5914.361386378736,694.3762447304753,0.0,0.0,0.0,0.0,0.0,0.0,0.0,0.0
275.750004108,pos,525.0973127043534,-5914.526540910289,694.3761238889733,0.0,0.0,0.0,0.0,0.0,0.0,0.0,0.0
275.750004108,imu,0.0,0.0,0.0,0.0,0.0,0.0,-0.5969082226905333,0.8023095248620875,0.0007484920788556337,-0.2661677300930023,0.017568008974194527
275.750004108,speed,0.0,0.0,0.0,-0.001908392391706587,0.0,0.0,0.0,0.0,0.0,0.0,0.0
275.85000411,speed,0.0,0.0,0.0,-0.001958902042875302,0.0,0.0,0.0,0.0,0.0,0.0,0.0
275.85000411,imu,0.0,0.0,0.0,0.0,0.0,0.0,-0.5969082226905333,0.8023095248620875,-0.0019496947061270475,-0.20080018043518066,-0.06461737304925919
275.85000411,pos,525.4718353238279,-5913.774321722196,694.3760024613025,0.0,0.0,0.0,0.0,0.0,0.0,0.0,0.0
275.900004111,speed,0.0,0.0,0.0,0.08593182399326618,0.0,0.0,0.0,0.0,0.0,0.0,0.0
275.900004111,imu,0.0,0.0,0.0,0.0,0.0,0.0,-0.5971217717970316,0.8021506028458582,-0.03289142623543739,1.1624566316604614,-0.16026106476783752
275.900004111,pos,524.6002764536303,-5913.379414372404,694.3756370456081,0.0,0.0,0.0,0.0,0.0,0.0,0.0,0.0
275.950004111,imu,0.0,0.0,0.0,0.0,0.0,0.0,-0.5971332465923521,0.802142060868321,0.0005592036177404225,-1.4307681322097778,0.11772817373275757
275.950004111,pos,526.1218831199122,-5913.625948741772,694.3755499636216,0.0,0.0,0.0,0.0,0.0,0.0,0.0,0.0
275.950004111,speed,0.0,0.0,0.0,-0.0007996413058411985,0.0,0.0,0.0,0.0,0.0,0.0,0.0
276.000004112,speed,0.0,0.0,0.0,-0.0008885110363698216,0.0,0.0,0.0,0.0,0.0,0.0,0.0
276.000004112,pos,524.545862770771,-5913.780922655614,694.3754890313287,0.0,0.0,0.0,0.0,0.0,0.0,0.0,0.0
276.000004112,imu,0.0,0.0,0.0,0.0,0.0,0.0,-0.5971332465923521,0.802142060868321,-0.0005334020243026316,-0.6193825006484985,0.01954716444015503
276.050004113,imu,0.0,0.0,0.0,0.0,0.0,0.0,-0.5971332465923521,0.802142060868321,-0.0005090489867143333,-0.22242052853107452,-0.05851786583662033
276.050004113,speed,0.0,0.0,0.0,-0.0009024300595726607,0.0,0.0,0.0,0.0,0.0,0.0,0.0
276.050004113,pos,524.1400136136375,-5913.247363903263,694.3754246434335,0.0,0.0,0.0,0.0,0.0,0.0,0.0,0.0
276.100004114,speed,0.0,0.0,0.0,-0.0007180486759125161,0.0,0.0,0.0,0.0,0.0,0.0,0.0
276.100004114,imu,0.0,0.0,0.0,0.0,0.0,0.0,-0.5971334378379056,0.802141918500638,-0.0013348793145269156,-0.28883111476898193,-0.015755997970700264
276.100004114,pos,523.8710645689554,-5914.577694356602,694.3753918922257,0.0,0.0,0.0,0.0,0.0,0.0,0.0,0.0
276.100004114,speed,0.0,0.0,0.0,-0.0005503750958926778,0.0,0.0,0.0,0.0,0.0,0.0,0.0
276.150004114,imu,0.0,0.0,0.0,0.0,0.0,0.0,-0.5971335334606696,0.8021418473167794,0.0017687634099274874,-0.2498822957277298,-0.02816859260201454
276.150004114,pos,525.4645059910969,-5914.479610553601,694.3752943213649,0.0,0.0,0.0,0.0,0.0,0.0,0.0,0.0
276.200004115,speed,0.0,0.0,0.0,-0.0004569312499917638,0.0,0.0,0.0,0.0,0.0,0.0,0.0
276.200004115,imu,0.0,0.0,0.0,0.0,0.0,0.0,-0.5971333422151331,0.8021419896844851,-0.0022207428701221943,-0.21013586223125458,-0.040619272738695145
276.200004115,pos,524.3089018205375,-5913.112067982203,694.3752711588368,0.0,0.0,0.0,0.0,0.0,0.0,0.0,0.0
276.250004116,speed,0.0,0.0,0.0,0.05874154727840278,0.0,0.0,0.0,0.0,0.0,0.0,0.0
276.250004116,imu,0.0,0.0,0.0,0.0,0.0,0.0,-0.5970952836779267,0.8021703199505552,0.003743535839021206,0.6868146061897278,-0.12231379747390747
276.250004116,pos,524.7177661340991,-5914.460899703675,694.3751700640487,0.0,0.0,0.0,0.0,0.0,0.0,0.0,0.0
276.300004117,imu,0.0,0.0,0.0,0.0,0.0,0.0,-0.5972108894962872,0.8020842558404033,-0.009600654244422913,1.1077768802642822,0.004539860878139734
276.300004117,pos,524.8696831052268,-5913.773739356584,694.3749411063307,0.0,0.0,0.0,0.0,0.0,0.0,0.0,0.0
276.300004117,speed,0.0,0.0,0.0,0.16421621886605792,0.0,0.0,0.0,0.0,0.0,0.0,0.0
276.350004117,speed,0.0,0.0,0.0,0.3115668165121276,0.0,0.0,0.0,0.0,0.0,0.0,0.0
276.350004117,imu,0.0,0.0,0.0,0.0,0.0,0.0,-0.5973261960926042,0.8019983886901144,-0.0033161183819174767,2.372908115386963,-0.24892978370189667
276.350004117,pos,524.8119859069595,-5913.25415885191,694.3744878402767,0.0,0.0,0.0,0.0,0.0,0.0,0.0,0.0
276.400004118,speed,0.0,0.0,0.0,0.46840360485046983,0.0,0.0,0.0,0.0,0.0,0.0,0.0
276.400004118,pos,525.0118797576495,-5913.622969307533,694.3738703205784,0.0,0.0,0.0,0.0,0.0,0.0,0.0,0.0
276.400004118,imu,0.0,0.0,0.0,0.0,0.0,0.0,-0.5976754824882629,0.8017381228508609,-0.00777049595490098,2.6238462924957275,-0.27804628014564514
276.450004119,imu,0.0,0.0,0.0,0.0,0.0,0.0,-0.5978240907714969,0.8016273177064471,8.267053635790944e-05,-6.43528413772583,0.4764385223388672
276.450004119,pos,524.4653709041645,-5913.41523831109,694.3740275354276,0.0,0.0,0.0,0.0,0.0,0.0,0.0,0.0
276.450004119,speed,0.0,0.0,0.0,0.004427350913510536,0.0,0.0,0.0,0.0,0.0,0.0,0.0
276.50000412,speed,0.0,0.0,0.0,0.09709851999340174,0.0,0.0,0.0,0.0,0.0,0.0,0.0
276.50000412,imu,0.0,0.0,0.0,0.0,0.0,0.0,-0.5978620279869341,0.8015990241332324,-0.00928838923573494,-1.2102640867233276,-0.05540764331817627
276.50000412,pos,525.203984427015,-5914.378061687939,694.3740878323968,0.0,0.0,0.0,0.0,0.0,0.0,0.0,0.0
276.55000412,speed,0.0,0.0,0.0,0.001241540140763556,0.0,0.0,0.0,0.0,0.0,0.0,0.0
276.55000412,pos,525.5247604635558,-5915.626652123253,694.3741797731268,0.0,0.0,0.0,0.0,0.0,0.0,0.0,0.0
276.55000412,imu,0.0,0.0,0.0,0.0,0.0,0.0,-0.597880852757953,0.8015849835827907,0.0006323448615148664,-0.566031277179718,0.02290888875722885
276.600004121,speed,0.0,0.0,0.0,0.0003756576516933001,0.0,0.0,0.0,0.0,0.0,0.0,0.0
276.600004121,imu,0.0,0.0,0.0,0.0,0.0,0.0,-0.597880852757953,0.8015849835827907,-0.000466959027107805,-0.6196537613868713,-0.021315373480319977
276.600004121,pos,524.9024044508691,-5914.004256688941,694.3742048630155,0.0,0.0,0.0,0.0,0.0,0.0,0.0,0.0
276.650004122,speed,0.0,0.0,0.0,-5.2375588044560744e-05,0.0,0.0,0.0,0.0,0.0,0.0,0.0
276.650004122,pos,524.4929872102108,-5913.866526387494,694.3742121247647,0.0,0.0,0.0,0.0,0.0,0.0,0.0,0.0
276.650004122,imu,0.0,0.0,0.0,0.0,0.0,0.0,-0.597880852757953,0.8015849835827907,-0.00036698070471175015,-0.20965690910816193,-0.040897976607084274
276.700004123,imu,0.0,0.0,0.0,0.0,0.0,0.0,-0.597880852757953,0.8015849835827907,-0.0009585314546711743,-0.2480204552412033,-0.02772093378007412
276.700004123,pos,524.2658033894725,-5914.399449424932,694.3742098477858,0.0,0.0,0.0,0.0,0.0,0.0,0.0,0.0
276.700004123,speed,0.0,0.0,0.0,-0.00019359760651974472,0.0,0.0,0.0,0.0,0.0,0.0,0.0
276.750004123,imu,0.0,0.0,0.0,0.0,0.0,0.0,-0.59788018386311,0.8015854824931735,-0.0002161597367376089,-0.2071721851825714,-0.04055734723806381
276.750004123,speed,0.0,0.0,0.0,-0.00021893052556924046,0.0,0.0,0.0,0.0,0.0,0.0,0.0
276.750004123,pos,524.794391057952,-5913.712819168188,694.3741758780372,0.0,0.0,0.0,0.0,0.0,0.0,0.0,0.0
276.800004124,speed,0.0,0.0,0.0,-0.0002540130595996293,0.0,0.0,0.0,0.0,0.0,0.0,0.0
276.800004124,pos,524.9852107475627,-5915.117029780364,694.374172852187,0.0,0.0,0.0,0.0,0.0,0.0,0.0,0.0
276.800004124,imu,0.0,0.0,0.0,0.0,0.0,0.0,-0.59788018386311,0.8015854824931735,0.00032213146914727986,-0.28508082032203674,-0.017353713512420654
276.850004125,pos,524.2863034238387,-5913.742658310431,694.3741434284354,0.0,0.0,0.0,0.0,0.0,0.0,0.0,0.0
276.850004125,speed,0.0,0.0,0.0,-0.00020861981832626515,0.0,0.0,0.0,0.0,0.0,0.0,0.0
276.850004125,imu,0.0,0.0,0.0,0.0,0.0,0.0,-0.5978797060808244,0.8015858388573909,0.00023749431420583278,-0.20689556002616882,-0.043729111552238464
276.900004126,pos,525.0865389638341,-5914.432972123596,694.374142963642,0.0,0.0,0.0,0.0,0.0,0.0,0.0,0.0
276.900004126,speed,0.0,0.0,0.0,-0.0001778064354252126,0.0,0.0,0.0,0.0,0.0,0.0,0.0
276.900004126,imu,0.0,0.0,0.0,0.0,0.0,0.0,-0.5978797060808244,0.8015858388573909,0.00041471151052974164,-0.28506749868392944,-0.018800022080540657
276.950004126,speed,0.0,0.0,0.0,1.4159059354554857e-05,0.0,0.0,0.0,0.0,0.0,0.0,0.0
276.950004126,imu,0.0,0.0,0.0,0.0,0.0,0.0,-0.5978797060808244,0.8015858388573909,0.0006924876943230629,-0.24471493065357208,-0.030576186254620552
276.950004126,pos,524.7078823927409,-5914.151506223648,694.3741483710821,0.0,0.0,0.0,0.0,0.0,0.0,0.0,0.0
277.000004127,speed,0.0,0.0,0.0,0.009850438713265146,0.0,0.0,0.0,0.0,0.0,0.0,0.0
277.000004127,imu,0.0,0.0,0.0,0.0,0.0,0.0,-0.5978903127975805,0.8015779275047507,0.008206203579902649,0.44615140557289124,0.036992210894823074
277.000004127,pos,525.5735911850693,-5914.2053515801545,694.3740461553471,0.0,0.0,0.0,0.0,0.0,0.0,0.0,0.0
277.000004127,speed,0.0,0.0,0.0,0.06419347972152846,0.0,0.0,0.0,0.0,0.0,0.0,0.0
277.050004128,imu,0.0,0.0,0.0,0.0,0.0,0.0,-0.5979386628106824,0.8015418613623203,0.0009067304199561477,0.2506071925163269,-0.05294870585203171
277.050004128,pos,525.3968904561236,-5914.445150789543,694.3739293423075,0.0,0.0,0.0,0.0,0.0,0.0,0.0,0.0
277.050004128,speed,0.0,0.0,0.0,0.237820721102099,0.0,0.0,0.0,0.0,0.0,0.0,0.0
277.100004129,pos,524.8848602264526,-5914.315794744739,694.3736191080275,0.0,0.0,0.0,0.0,0.0,0.0,0.0,0.0
277.100004129,imu,0.0,0.0,0.0,0.0,0.0,0.0,-0.5977867256056991,0.8016551819140301,0.01543326023966074,1.6707687377929688,-0.07615526020526886
277.150004129,speed,0.0,0.0,0.0,0.4261101527061829,0.0,0.0,0.0,0.0,0.0,0.0,0.0
277.150004129,pos,525.1931264660914,-5913.522525729908,694.3730411501683,0.0,0.0,0.0,0.0,0.0,0.0,0.0,0.0
277.150004129,imu,0.0,0.0,0.0,0.0,0.0,0.0,-0.5979188835228172,0.801556616045821,-0.011936448514461517,3.2909023761749268,-0.26534736156463623
277.20000413,speed,0.0,0.0,0.0,0.003843067408526831,0.0,0.0,0.0,0.0,0.0,0.0,0.0
277.20000413,imu,0.0,0.0,0.0,0.0,0.0,0.0,-0.5978556255785031,0.8016037992450739,0.0003797300742007792,-5.075961589813232,0.13262860476970673
277.20000413,pos,525.4879199920736,-5913.257904027937,694.3731031676866,0.0,0.0,0.0,0.0,0.0,0.0,0.0,0.0
277.250004131,speed,0.0,0.0,0.0,0.09445217808664567,0.0,0.0,0.0,0.0,0.0,0.0,0.0
277.250004131,pos,523.6477518239444,-5914.389222223508,694.3731925904967,0.0,0.0,0.0,0.0,0.0,0.0,0.0,0.0
277.250004131,imu,0.0,0.0,0.0,0.0,0.0,0.0,-0.5978816172086924,0.8015844133988127,-0.007163283880800009,-1.4312782287597656,0.03048500418663025
277.300004132,speed,0.0,0.0,0.0,0.3164560692019911,0.0,0.0,0.0,0.0,0.0,0.0,0.0
277.300004132,pos,524.1868365556356,-5913.60271300338,694.3726795515782,0.0,0.0,0.0,0.0,0.0,0.0,0.0,0.0
277.300004132,imu,0.0,0.0,0.0,0.0,0.0,0.0,-0.5981511477423257,0.8013833068229824,-0.018109269440174103,4.681788444519043,-0.48992547392845154
277.350004132,speed,0.0,0.0,0.0,0.5630823716713843,0.0,0.0,0.0,0.0,0.0,0.0,0.0
277.350004132,imu,0.0,0.0,0.0,0.0,0.0,0.0,-0.5987674408570071,0.8009229374724828,-0.032678354531526566,4.335453510284424,-0.42384448647499084
277.350004132,pos,525.3754644993152,-5914.56944753588,694.3718620656709,0.0,0.0,0.0,0.0,0.0,0.0,0.0,0.0
277.400004133,speed,0.0,0.0,0.0,0.7488757751339684,0.0,0.0,0.0,0.0,0.0,0.0,0.0
277.400004133,imu,0.0,0.0,0.0,0.0,0.0,0.0,-0.5991911814234305,0.8006059755612579,0.0029302998445928097,3.5960445404052734,0.3033335506916046
277.400004133,pos,523.7246445090398,-5914.674887571554,694.3708465001969,0.0,0.0,0.0,0.0,0.0,0.0,0.0,0.0
277.450004134,speed,0.0,0.0,0.0,0.009526365038044623,0.0,0.0,0.0,0.0,0.0,0.0,0.0
277.450004134,pos,524.7519419916189,-5913.354983308189,694.370943475202,0.0,0.0,0.0,0.0,0.0,0.0,0.0,0.0
277.450004134,imu,0.0,0.0,0.0,0.0,0.0,0.0,-0.5993155320839252,0.8005128937143746,-0.0002620900340843946,-9.090224266052246,0.35581347346305847
277.500004135,imu,0.0,0.0,0.0,0.0,0.0,0.0,-0.5993171543684412,0.8005116791650912,-0.0015701582888141274,-5.46694278717041,0.08534577488899231
277.500004135,speed,0.0,0.0,0.0,0.004083614188794036,0.0,0.0,0.0,0.0,0.0,0.0,0.0
277.500004135,pos,524.7767155657584,-5914.254702644096,694.3712732865556,0.0,0.0,0.0,0.0,0.0,0.0,0.0,0.0
277.550004135,speed,0.0,0.0,0.0,0.001459826766164338,0.0,0.0,0.0,0.0,0.0,0.0,0.0
277.550004135,pos,524.8068100223194,-5913.956541748503,694.3714333775365,0.0,0.0,0.0,0.0,0.0,0.0,0.0,0.0
277.550004135,imu,0.0,0.0,0.0,0.0,0.0,0.0,-0.5993176315104775,0.8005113219440881,-0.000908323097974062,-0.21282446384429932,-0.04102015867829323
277.600004136,pos,525.0851831190034,-5914.387898565556,694.3714852161297,0.0,0.0,0.0,0.0,0.0,0.0,0.0,0.0
277.600004136,imu,0.0,0.0,0.0,0.0,0.0,0.0,-0.5993181086523008,0.8005109647228006,0.0008227143553085625,-0.126625657081604,-0.025825176388025284
277.600004136,speed,0.0,0.0,0.0,0.0002561385162607259,0.0,0.0,0.0,0.0,0.0,0.0,0.0
277.650004137,speed,0.0,0.0,0.0,-0.0003885612790052532,0.0,0.0,0.0,0.0,0.0,0.0,0.0
277.650004137,pos,524.1986391342618,-5915.1686531674095,694.3714322484066,0.0,0.0,0.0,0.0,0.0,0.0,0.0,0.0
277.650004137,imu,0.0,0.0,0.0,0.0,0.0,0.0,-0.5993175360820873,0.8005113933883115,-0.00041265186155214906,-0.17611150443553925,-0.05231062322854996
277.700004138,speed,0.0,0.0,0.0,-0.0005306469459345441,0.0,0.0,0.0,0.0,0.0,0.0,0.0
277.700004138,pos,524.2549734398965,-5913.991251944706,694.3714297829565,0.0,0.0,0.0,0.0,0.0,0.0,0.0,0.0
277.700004138,imu,0.0,0.0,0.0,0.0,0.0,0.0,-0.5993174406536885,0.8005114648325236,0.00042388663860037923,-0.2543908357620239,-0.02974148467183113
277.750004138,speed,0.0,0.0,0.0,-0.0005864835044962579,0.0,0.0,0.0,0.0,0.0,0.0,0.0
277.750004138,imu,0.0,0.0,0.0,0.0,0.0,0.0,-0.5993170589400084,0.8005117506092577,-0.0018645512172952294,-0.25125348567962646,-0.030838120728731155
277.750004138,pos,524.9691857661769,-5913.727548519331,694.3714073511828,0.0,0.0,0.0,0.0,0.0,0.0,0.0,0.0
277.800004139,speed,0.0,0.0,0.0,-0.0005668430267367079,0.0,0.0,0.0,0.0,0.0,0.0,0.0
277.800004139,pos,524.7861810958112,-5914.291700971789,694.3713792308936,0.0,0.0,0.0,0.0,0.0,0.0,0.0,0.0
277.800004139,imu,0.0,0.0,0.0,0.0,0.0,0.0,-0.5993165817977166,0.8005121078299197,0.00036296245525591075,-0.28851503133773804,-0.021251533180475235
277.85000414,speed,0.0,0.0,0.0,-0.0004813581771318795,0.0,0.0,0.0,0.0,0.0,0.0,0.0
277.85000414,imu,0.0,0.0,0.0,0.0,0.0,0.0,-0.5993165817977166,0.8005121078299197,-0.0015037115663290024,-0.20979617536067963,-0.04263053461909294
277.85000414,pos,525.5445475049622,-5915.111595373062,694.3713079832434,0.0,0.0,0.0,0.0,0.0,0.0,0.0,0.0
277.900004141,speed,0.0,0.0,0.0,-0.00015841881945894635,0.0,0.0,0.0,0.0,0.0,0.0,0.0
277.900004141,pos,524.8262853206513,-5914.70808473958,694.3713128329987,0.0,0.0,0.0,0.0,0.0,0.0,0.0,0.0
277.900004141,imu,0.0,0.0,0.0,0.0,0.0,0.0,-0.5993163909407403,0.8005122507181047,-0.0008366353577002883,-0.28178709745407104,-0.0010981366503983736
277.950004141,speed,0.0,0.0,0.0,-0.00024620606028655267,0.0,0.0,0.0,0.0,0.0,0.0,0.0
277.950004141,imu,0.0,0.0,0.0,0.0,0.0,0.0,-0.5993160092266854,0.8005125364943384,-0.000629190995823592,-0.21458205580711365,-0.06245937570929527
277.950004141,pos,525.1205841751532,-5914.412225568221,694.371282141044,0.0,0.0,0.0,0.0,0.0,0.0,0.0,0.0
277.950004141,speed,0.0,0.0,0.0,-0.0002728021462646208,0.0,0.0,0.0,0.0,0.0,0.0,0.0
278.000004142,imu,0.0,0.0,0.0,0.0,0.0,0.0,-0.5993160092266854,0.8005125364943384,0.001041374634951353,-0.28411927819252014,-0.02003721334040165
278.000004142,pos,525.0905890531217,-5913.805308218277,694.3712773756099,0.0,0.0,0.0,0.0,0.0,0.0,0.0,0.0
278.050004143,imu,0.0,0.0,0.0,0.0,0.0,0.0,-0.5993157229410548,0.8005127508263943,-0.0014200153527781367,-0.20664894580841064,-0.04217730090022087
278.050004143,pos,525.1620163300456,-5913.968741695138,694.3712438774276,0.0,0.0,0.0,0.0,0.0,0.0,0.0,0.0
278.050004143,speed,0.0,0.0,0.0,-0.00014500021034107824,0.0,0.0,0.0,0.0,0.0,0.0,0.0
278.100004144,speed,0.0,0.0,0.0,-0.00017055149301574673,0.0,0.0,0.0,0.0,0.0,0.0,0.0
278.100004144,imu,0.0,0.0,0.0,0.0,0.0,0.0,-0.5993157229410548,0.8005127508263943,-0.0005366196855902672,-0.2837831974029541,-0.022358156740665436
278.100004144,pos,525.0203097874368,-5913.169375881556,694.371240771231,0.0,0.0,0.0,0.0,0.0,0.0,0.0,0.0
278.150004144,speed,0.0,0.0,0.0,-7.118390692908263e-05,0.0,0.0,0.0,0.0,0.0,0.0,0.0
278.150004144,pos,524.4409973115877,-5913.7171139052725,694.3712346523816,0.0,0.0,0.0,0.0,0.0,0.0,0.0,0.0
278.150004144,imu,0.0,0.0,0.0,0.0,0.0,0.0,-0.5993154366553476,0.8005129651583477,-0.00037025444908067584,-0.20703628659248352,-0.041509561240673065
278.200004145,speed,0.0,0.0,0.0,-6.303391113832015e-05,0.0,0.0,0.0,0.0,0.0,0.0,0.0
278.200004145,pos,524.6416812104442,-5913.369035561973,694.371221271098,0.0,0.0,0.0,0.0,0.0,0.0,0.0,0.0
278.200004145,imu,0.0,0.0,0.0,0.0,0.0,0.0,-0.5993151503695637,0.8005131794901988,-0.00027259966009296477,-0.28250283002853394,-0.021210158243775368
278.200004145,speed,0.0,0.0,0.0,-5.5148597863738505e-05,0.0,0.0,0.0,0.0,0.0,0.0,0.0
278.250004146,pos,524.3475784665138,-5914.033305054528,694.3712159271573,0.0,0.0,0.0,0.0,0.0,0.0,0.0,0.0
278.250004146,imu,0.0,0.0,0.0,0.0,0.0,0.0,-0.5993149595123318,0.8005133223780426,-0.0011565349996089935,-0.2397579550743103,-0.012621094472706318
278.250004146,speed,0.0,0.0,0.0,3.979312835768357e-05,0.0,0.0,0.0,0.0,0.0,0.0,0.0
278.300004146,pos,524.7681424024829,-5914.643496652796,694.3712142516362,0.0,0.0,0.0,0.0,0.0,0.0,0.0,0.0
278.300004146,imu,0.0,0.0,0.0,0.0,0.0,0.0,-0.5993149595123318,0.8005133223780426,0.0008572803344577551,-0.2504926025867462,-0.05148978531360626
278.350004147,speed,0.0,0.0,0.0,1.634191918448912e-05,0.0,0.0,0.0,0.0,0.0,0.0,0.0
278.350004147,imu,0.0,0.0,0.0,0.0,0.0,0.0,-0.5993149595123318,0.8005133223780426,0.0003470244409982115,-0.24303412437438965,-0.03055279143154621
278.350004147,pos,523.8862466217487,-5912.935323635301,694.3712146259786,0.0,0.0,0.0,0.0,0.0,0.0,0.0,0.0
278.400004148,speed,0.0,0.0,0.0,2.7847185932676342e-06,0.0,0.0,0.0,0.0,0.0,0.0,0.0
278.400004148,imu,0.0,0.0,0.0,0.0,0.0,0.0,-0.5993146732264202,0.800513536709723,0.0008403753745369613,-0.24363547563552856,-0.03330158442258835
278.400004148,pos,524.7170521626289,-5915.84898439885,694.3712193256754,0.0,0.0,0.0,0.0,0.0,0.0,0.0,0.0
278.400004148,speed,0.0,0.0,0.0,-1.4772368676943799e-07,0.0,0.0,0.0,0.0,0.0,0.0,0.0
278.450004149,imu,0.0,0.0,0.0,0.0,0.0,0.0,-0.5993146732264202,0.800513536709723,0.0011534270597621799,-0.2427307516336441,-0.03265026956796646
278.450004149,pos,524.8689847021662,-5915.081905464254,694.371213645187,0.0,0.0,0.0,0.0,0.0,0.0,0.0,0.0
278.450004149,speed,0.0,0.0,0.0,-1.8381531521761025e-05,0.0,0.0,0.0,0.0,0.0,0.0,0.0
278.500004149,pos,525.3795490453641,-5913.887124556062,694.371223954272,0.0,0.0,0.0,0.0,0.0,0.0,0.0,0.0
278.500004149,imu,0.0,0.0,0.0,0.0,0.0,0.0,-0.5993146732264202,0.800513536709723,0.000545405549928546,-0.24178338050842285,-0.030878882855176926
278.55000415,speed,0.0,0.0,0.0,1.7149338850477355e-05,0.0,0.0,0.0,0.0,0.0,0.0,0.0
278.55000415,imu,0.0,0.0,0.0,0.0,0.0,0.0,-0.5993146732264202,0.800513536709723,0.00015234127931762487,-0.24289670586585999,-0.03097686544060707
278.55000415,pos,524.7186250969801,-5914.812673883479,694.3712205401562,0.0,0.0,0.0,0.0,0.0,0.0,0.0,0.0
278.600004151,speed,0.0,0.0,0.0,1.4593498769946616e-05,0.0,0.0,0.0,0.0,0.0,0.0,0.0
278.600004151,pos,524.6963261442396,-5914.540354597407,694.3712115525973,0.0,0.0,0.0,0.0,0.0,0.0,0.0,0.0
278.600004151,imu,0.0,0.0,0.0,0.0,0.0,0.0,-0.5993146732264202,0.800513536709723,6.209410639712587e-05,-0.24479269981384277,-0.03196168318390846
278.650004152,imu,0.0,0.0,0.0,0.0,0.0,0.0,-0.5993146732264202,0.800513536709723,-0.0007899370975792408,-0.24392662942409515,-0.03151853755116463
278.650004152,speed,0.0,0.0,0.0,1.6192298738339503e-05,0.0,0.0,0.0,0.0,0.0,0.0,0.0
278.650004152,pos,525.5859259596958,-5914.27238436018,694.3712065889631,0.0,0.0,0.0,0.0,0.0,0.0,0.0,0.0
278.700004152,pos,524.5621453258278,-5913.257232442119,694.3712162202762,0.0,0.0,0.0,0.0,0.0,0.0,0.0,0.0
278.700004152,speed,0.0,0.0,0.0,0.0,0.0,0.0,0.0,0.0,0.0,0.0,0.0
278.700004152,imu,0.0,0.0,0.0,0.0,0.0,0.0,-0.5993146732264202,0.800513536709723,-0.0005864011473022401,-0.24187473952770233,-0.030216185376048088
278.750004153,speed,0.0,0.0,0.0,5.164714567501893e-05,0.0,0.0,0.0,0.0,0.0,0.0,0.0
278.750004153,pos,525.1375224790862,-5914.517433668995,694.3712156224344,0.0,0.0,0.0,0.0,0.0,0.0,0.0,0.0
278.750004153,imu,0.0,0.0,0.0,0.0,0.0,0.0,-0.5993146732264202,0.800513536709723,-0.0010151893366128206,-0.2409570813179016,-0.03179684653878212
278.800004154,speed,0.0,0.0,0.0,3.65371127771173e-05,0.0,0.0,0.0,0.0,0.0,0.0,0.0
278.800004154,imu,0.0,0.0,0.0,0.0,0.0,0.0,-0.5993146732264202,0.800513536709723,0.0007291189394891262,-0.2438051551580429,-0.03016062080860138
278.800004154,pos,524.4667658812616,-5914.467299655466,694.3712164289735,0.0,0.0,0.0,0.0,0.0,0.0,0.0,0.0
278.850004155,speed,0.0,0.0,0.0,4.9084726752580567e-05,0.0,0.0,0.0,0.0,0.0,0.0,0.0
278.850004155,imu,0.0,0.0,0.0,0.0,0.0,0.0,-0.5993146732264202,0.800513536709723,0.0013109809951856732,-0.2442476600408554,-0.030799392610788345
278.850004155,pos,523.910487083068,-5914.494628895704,694.3712052375649,0.0,0.0,0.0,0.0,0.0,0.0,0.0,0.0
278.900004155,speed,0.0,0.0,0.0,3.492328784898686e-05,0.0,0.0,0.0,0.0,0.0,0.0,0.0
278.900004155,pos,524.9092682636638,-5914.692889656773,694.371152622308,0.0,0.0,0.0,0.0,0.0,0.0,0.0,0.0
278.900004155,imu,0.0,0.0,0.0,0.0,0.0,0.0,-0.5993135280820072,0.8005143940354209,-0.0004745664482470602,-0.24182350933551788,-0.030454445630311966
278.950004156,speed,0.0,0.0,0.0,4.9391486579138576e-05,0.0,0.0,0.0,0.0,0.0,0.0,0.0
278.950004156,pos,524.9284440581058,-5915.688172649633,694.3711528930111,0.0,0.0,0.0,0.0,0.0,0.0,0.0,0.0
278.950004156,imu,0.0,0.0,0.0,0.0,0.0,0.0,-0.5993135280820072,0.8005143940354209,0.0002669881214387715,-0.24349220097064972,-0.03258933871984482
279.000004157,speed,0.0,0.0,0.0,6.154997084694281e-05,0.0,0.0,0.0,0.0,0.0,0.0,0.0
279.000004157,imu,0.0,0.0,0.0,0.0,0.0,0.0,-0.5993133372244858,0.800514536922878,-0.00048483299906365573,-0.24252524971961975,-0.03300827369093895
279.000004157,pos,524.3937604305842,-5913.552404442017,694.3712140325376,0.0,0.0,0.0,0.0,0.0,0.0,0.0,0.0
279.000004157,imu,0.0,0.0,0.0,0.0,0.0,0.0,-0.5993132417957123,0.8005146083665895,0.0012329041492193937,-0.24220596253871918,-0.03292565792798996
279.050004158,pos,524.4599036058606,-5915.793074637708,694.3711487101609,0.0,0.0,0.0,0.0,0.0,0.0,0.0,0.0
279.050004158,speed,0.0,0.0,0.0,3.161049534793957e-05,0.0,0.0,0.0,0.0,0.0,0.0,0.0
279.100004158,speed,0.0,0.0,0.0,2.9673738117642877e-06,0.0,0.0,0.0,0.0,0.0,0.0,0.0
279.100004158,imu,0.0,0.0,0.0,0.0,0.0,0.0,-0.5993132417957123,0.8005146083665895,0.0011596546974033117,-0.24369658529758453,-0.03297916427254677
279.100004158,pos,524.4153999210304,-5914.063104811789,694.3711518731977,0.0,0.0,0.0,0.0,0.0,0.0,0.0,0.0
279.150004159,imu,0.0,0.0,0.0,0.0,0.0,0.0,-0.5993132417957123,0.8005146083665895,-0.001036950619891286,-0.2434668391942978,-0.03221488744020462
279.150004159,pos,524.6725133712727,-5913.92130412806,694.3711444758655,0.0,0.0,0.0,0.0,0.0,0.0,0.0,0.0
279.150004159,speed,0.0,0.0,0.0,6.458586551602566e-05,0.0,0.0,0.0,0.0,0.0,0.0,0.0
279.20000416,pos,524.7048045284378,-5913.743472816693,694.3711500650875,0.0,0.0,0.0,0.0,0.0,0.0,0.0,0.0
279.20000416,imu,0.0,0.0,0.0,0.0,0.0,0.0,-0.5993129555093407,0.8005148226976556,-0.0008445036364719272,-0.24834413826465607,-0.04981809854507446
279.20000416,speed,0.0,0.0,0.0,1.2033181923639603e-05,0.0,0.0,0.0,0.0,0.0,0.0,0.0
279.250004161,imu,0.0,0.0,0.0,0.0,0.0,0.0,-0.5993129555093407,0.8005148226976556,-0.002182482276111841,-0.23717176914215088,-0.013564818538725376
279.250004161,pos,524.1186852844778,-5914.033758692929,694.3711552053396,0.0,0.0,0.0,0.0,0.0,0.0,0.0,0.0
279.250004161,speed,0.0,0.0,0.0,2.9121988161368044e-05,0.0,0.0,0.0,0.0,0.0,0.0,0.0
279.300004161,imu,0.0,0.0,0.0,0.0,0.0,0.0,-0.5993129555093407,0.8005148226976556,-9.562322520650923e-05,-0.2418108582496643,-0.03302062302827835
279.300004161,pos,524.6286155081419,-5914.113471523447,694.3711499212995,0.0,0.0,0.0,0.0,0.0,0.0,0.0,0.0
279.300004161,speed,0.0,0.0,0.0,6.655095943101721e-05,0.0,0.0,0.0,0.0,0.0,0.0,0.0
279.350004162,imu,0.0,0.0,0.0,0.0,0.0,0.0,-0.5993129555093407,0.8005148226976556,-0.001680380548350513,-0.2424953728914261,-0.033765316009521484
279.350004162,pos,523.5253294642481,-5913.486757995552,694.3711552415181,0.0,0.0,0.0,0.0,0.0,0.0,0.0,0.0
279.350004162,speed,0.0,0.0,0.0,1.5746205179758127e-05,0.0,0.0,0.0,0.0,0.0,0.0,0.0
279.400004163,speed,0.0,0.0,0.0,8.668351696386348e-06,0.0,0.0,0.0,0.0,0.0,0.0,0.0
279.400004163,imu,0.0,0.0,0.0,0.0,0.0,0.0,-0.5993129555093407,0.8005148226976556,-0.0005751019343733788,-0.24152414500713348,-0.031675584614276886
279.400004163,pos,524.3879823570842,-5914.4503241632,694.3711485263175,0.0,0.0,0.0,0.0,0.0,0.0,0.0,0.0
279.450004164,speed,0.0,0.0,0.0,2.831678838823053e-05,0.0,0.0,0.0,0.0,0.0,0.0,0.0
279.450004164,imu,0.0,0.0,0.0,0.0,0.0,0.0,-0.5993126692228925,0.8005150370286194,0.0006424130406230688,-0.23777517676353455,-0.013049639761447906
279.450004164,pos,524.4408768812702,-5913.835972577485,694.3711409267362,0.0,0.0,0.0,0.0,0.0,0.0,0.0,0.0
279.500004164,imu,0.0,0.0,0.0,0.0,0.0,0.0,-0.5993126692228925,0.8005150370286194,0.0010985665721818805,-0.2476538121700287,-0.051684096455574036
279.500004164,pos,524.0241903623729,-5914.443965196189,694.3711547916282,0.0,0.0,0.0,0.0,0.0,0.0,0.0,0.0
279.500004164,speed,0.0,0.0,0.0,2.695265688291731e-05,0.0,0.0,0.0,0.0,0.0,0.0,0.0
279.550004165,speed,0.0,0.0,0.0,4.422431596219945e-05,0.0,0.0,0.0,0.0,0.0,0.0,0.0
279.550004165,pos,524.0069627016958,-5914.408059670604,694.3711479743142,0.0,0.0,0.0,0.0,0.0,0.0,0.0,0.0
279.550004165,imu,0.0,0.0,0.0,0.0,0.0,0.0,-0.5993126692228925,0.8005150370286194,-0.00039635581197217107,-0.2423371523618698,-0.03226958215236664
279.600004166,pos,525.5271442204528,-5914.7656213982345,694.3711518335845,0.0,0.0,0.0,0.0,0.0,0.0,0.0,0.0
279.600004166,imu,0.0,0.0,0.0,0.0,0.0,0.0,-0.5993126692228925,0.8005150370286194,-0.0015375075163319707,-0.24155384302139282,-0.03307432681322098
279.600004166,speed,0.0,0.0,0.0,4.691614422721676e-05,0.0,0.0,0.0,0.0,0.0,0.0,0.0
279.650004167,imu,0.0,0.0,0.0,0.0,0.0,0.0,-0.5993126692228925,0.8005150370286194,0.00032339044264517725,-0.2423733025789261,-0.0324966162443161
279.650004167,pos,524.709429307002,-5914.259574797845,694.3711542024905,0.0,0.0,0.0,0.0,0.0,0.0,0.0,0.0
279.650004167,speed,0.0,0.0,0.0,1.3058685129213425e-06,0.0,0.0,0.0,0.0,0.0,0.0,0.0
279.650004167,imu,0.0,0.0,0.0,0.0,0.0,0.0,-0.5993126692228925,0.8005150370286194,-0.0008756520110182464,-0.2420414388179779,-0.03200890123844147
279.650004167,pos,523.4652139301322,-5913.744283178764,694.3711543516531,0.0,0.0,0.0,0.0,0.0,0.0,0.0,0.0
279.700004167,speed,0.0,0.0,0.0,4.790330962842956e-05,0.0,0.0,0.0,0.0,0.0,0.0,0.0
279.750004168,speed,0.0,0.0,0.0,4.922477529376956e-05,0.0,0.0,0.0,0.0,0.0,0.0,0.0
279.750004168,imu,0.0,0.0,0.0,0.0,0.0,0.0,-0.5993126692228925,0.8005150370286194,-0.0011999265989288688,-0.2415315955877304,-0.030039077624678612
279.750004168,pos,524.1985535674008,-5914.342543214819,694.3711569271111,0.0,0.0,0.0,0.0,0.0,0.0,0.0,0.0
279.800004169,speed,0.0,0.0,0.0,0.0004884296894012209,0.0,0.0,0.0,0.0,0.0,0.0,0.0
279.800004169,imu,0.0,0.0,0.0,0.0,0.0,0.0,-0.5993060846134286,0.8005199666125273,0.009155912324786186,0.3145221769809723,0.013218785636126995
279.800004169,pos,525.0381207067345,-5914.9630332078805,694.3711272044807,0.0,0.0,0.0,0.0,0.0,0.0,0.0,0.0
279.85000417,speed,0.0,0.0,0.0,0.06889070041298258,0.0,0.0,0.0,0.0,0.0,0.0,0.0
279.85000417,pos,523.8969784899152,-5914.779009198691,694.3710306653429,0.0,0.0,0.0,0.0,0.0,0.0,0.0,0.0
279.85000417,imu,0.0,0.0,0.0,0.0,0.0,0.0,-0.5992974959314522,0.8005263964231855,-0.004845394287258387,0.06865358352661133,0.026190971955657005
279.90000417,speed,0.0,0.0,0.0,0.2136373202579801,0.0,0.0,0.0,0.0,0.0,0.0,0.0
279.90000417,imu,0.0,0.0,0.0,0.0,0.0,0.0,-0.5991128225851137,0.8006646150630725,0.013075646013021469,1.2504184246063232,0.05510058254003525
279.90000417,pos,524.6590601965373,-5913.958083909538,694.3708177119759,0.0,0.0,0.0,0.0,0.0,0.0,0.0,0.0
279.950004171,speed,0.0,0.0,0.0,0.3453466241604675,0.0,0.0,0.0,0.0,0.0,0.0,0.0
279.950004171,imu,0.0,0.0,0.0,0.0,0.0,0.0,-0.5987314452520374,0.8009498464113758,0.03386151045560837,3.2591917514801025,0.3418106734752655
279.950004171,pos,524.0929111190836,-5913.841642314541,694.3702679445643,0.0,0.0,0.0,0.0,0.0,0.0,0.0,0.0
280.000004172,pos,525.0082684510608,-5915.07454585023,694.369538602358,0.0,0.0,0.0,0.0,0.0,0.0,0.0,0.0
280.000004172,imu,0.0,0.0,0.0,0.0,0.0,0.0,-0.5982872726881686,0.8012816853886984,0.03145337477326393,3.121156930923462,0.1313241720199585
280.000004172,speed,0.0,0.0,0.0,0.523535160794931,0.0,0.0,0.0,0.0,0.0,0.0,0.0
280.000004172,speed,0.0,0.0,0.0,0.708304062324094,0.0,0.0,0.0,0.0,0.0,0.0,0.0
280.050004173,imu,0.0,0.0,0.0,0.0,0.0,0.0,-0.5974239006419186,0.8019256093565007,0.05247613415122032,3.177351951599121,0.4274451434612274
280.050004173,pos,524.5192116051629,-5915.751896634195,694.3686204500755,0.0,0.0,0.0,0.0,0.0,0.0,0.0,0.0
280.100004173,speed,0.0,0.0,0.0,0.8883866023678192,0.0,0.0,0.0,0.0,0.0,0.0,0.0
280.100004173,pos,525.8049814839466,-5914.8117832563385,694.3674586917314,0.0,0.0,0.0,0.0,0.0,0.0,0.0,0.0
280.100004173,imu,0.0,0.0,0.0,0.0,0.0,0.0,-0.5964780314997122,0.8026294026125808,0.04455549269914627,3.8609421253204346,0.304073691368103
280.150004174,speed,0.0,0.0,0.0,1.110029497462275,0.0,0.0,0.0,0.0,0.0,0.0,0.0
280.150004174,pos,523.6051252624651,-5915.013283124487,694.3660650760471,0.0,0.0,0.0,0.0,0.0,0.0,0.0,0.0
280.150004174,imu,0.0,0.0,0.0,0.0,0.0,0.0,-0.5955781611572878,0.8032973633421834,0.036472901701927185,3.846477746963501,-0.05524124205112457
280.200004175,speed,0.0,0.0,0.0,1.3479000373677656,0.0,0.0,0.0,0.0,0.0,0.0,0.0
280.200004175,pos,524.5474780488807,-5915.1235874467375,694.3642963321563,0.0,0.0,0.0,0.0,0.0,0.0,0.0,0.0
280.200004175,imu,0.0,0.0,0.0,0.0,0.0,0.0,-0.5944164432561966,0.804157380110792,0.06625185906887054,4.424709796905518,0.15775561332702637
280.250004176,speed,0.0,0.0,0.0,1.5353356076455085,0.0,0.0,0.0,0.0,0.0,0.0,0.0
280.250004176,imu,0.0,0.0,0.0,0.0,0.0,0.0,-0.5928673466720078,0.8053001361294392,0.09026100486516953,3.958739757537842,0.7744954228401184
280.250004176,pos,524.3233082854912,-5914.083564101303,694.3623317232054,0.0,0.0,0.0,0.0,0.0,0.0,0.0,0.0
280.300004176,imu,0.0,0.0,0.0,0.0,0.0,0.0,-0.5909784709442204,0.8066873290689716,0.1069457158446312,3.8796586990356445,0.49127450585365295
280.300004176,pos,525.6085719962483,-5913.61845706672,694.3602001217592,0.0,0.0,0.0,0.0,0.0,0.0,0.0,0.0
280.300004176,speed,0.0,0.0,0.0,1.7618345710667294,0.0,0.0,0.0,0.0,0.0,0.0,0.0
280.350004177,speed,0.0,0.0,0.0,1.9753685468557969,0.0,0.0,0.0,0.0,0.0,0.0,0.0
280.350004177,imu,0.0,0.0,0.0,0.0,0.0,0.0,-0.5889302847589429,0.8081838402824882,0.09799416363239288,4.027005195617676,0.3916721045970917
280.350004177,pos,526.1140662332838,-5914.495048756173,694.357815672274,0.0,0.0,0.0,0.0,0.0,0.0,0.0,0.0
280.350004177,speed,0.0,0.0,0.0,2.2717156181240092,0.0,0.0,0.0,0.0,0.0,0.0,0.0
280.400004178,pos,525.3180022462034,-5914.662485862994,694.3550760272647,0.0,0.0,0.0,0.0,0.0,0.0,0.0,0.0
280.400004178,imu,0.0,0.0,0.0,0.0,0.0,0.0,-0.5868311093674304,0.8097093608688187,0.11489981412887573,5.3271260261535645,0.07081060111522675
280.400004178,imu,0.0,0.0,0.0,0.0,0.0,0.0,-0.5847179249240468,0.8112366783328505,0.0993720144033432,5.743602752685547,0.3913508951663971
280.400004178,pos,525.694904520318,-5914.8038970388825,694.3519648786423,0.0,0.0,0.0,0.0,0.0,0.0,0.0,0.0
280.450004179,speed,0.0,0.0,0.0,2.5755843067378845,0.0,0.0,0.0,0.0,0.0,0.0,0.0
280.450004179,imu,0.0,0.0,0.0,0.0,0.0,0.0,-0.5840232581717896,0.8117369240797213,-0.016865506768226624,6.233935356140137,-1.972939372062683
280.500004179,pos,525.9277852604462,-5914.21897999277,694.3484191082297,0.0,0.0,0.0,0.0,0.0,0.0,0.0,0.0
280.500004179,speed,0.0,0.0,0.0,2.887176184255701,0.0,0.0,0.0,0.0,0.0,0.0,0.0
280.500004179,speed,0.0,0.0,0.0,3.0330729309849067,0.0,0.0,0.0,0.0,0.0,0.0,0.0
280.55000418,imu,0.0,0.0,0.0,0.0,0.0,0.0,-0.5861786038829276,0.8101818588131073,-0.16868411004543304,4.177955627441406,-3.5235676765441895
280.55000418,pos,525.5086894417284,-5915.571001145412,694.3447333427207,0.0,0.0,0.0,0.0,0.0,0.0,0.0,0.0
280.600004181,pos,525.5954245973246,-5915.890628049548,694.3412108147222,0.0,0.0,0.0,0.0,0.0,0.0,0.0,0.0
280.600004181,imu,0.0,0.0,0.0,0.0,0.0,0.0,-0.5906228929498221,0.806947704825773,-0.23501726984977722,0.12377247214317322,-3.5602853298187256
280.600004181,speed,0.0,0.0,0.0,2.993265089891538,0.0,0.0,0.0,0.0,0.0,0.0,0.0
280.650004182,imu,0.0,0.0,0.0,0.0,0.0,0.0,-0.5955896523573068,0.8032888434460561,-0.2546066343784332,-1.7224968671798706,-1.2043462991714478
280.650004182,pos,525.4324245175251,-5915.6212561097245,694.3380099219692,0.0,0.0,0.0,0.0,0.0,0.0,0.0,0.0
280.650004182,speed,0.0,0.0,0.0,2.9211303674636295,0.0,0.0,0.0,0.0,0.0,0.0,0.0
280.700004182,imu,0.0,0.0,0.0,0.0,0.0,0.0,-0.6007136943656348,0.7994642314710463,-0.2524477243423462,-1.8435713052749634,-1.3643215894699097
280.700004182,speed,0.0,0.0,0.0,2.8470397577073436,0.0,0.0,0.0,0.0,0.0,0.0,0.0
280.700004182,pos,524.9475714890401,-5916.275366302458,694.3348715736142,0.0,0.0,0.0,0.0,0.0,0.0,0.0,0.0
280.750004183,speed,0.0,0.0,0.0,2.800903360935235,0.0,0.0,0.0,0.0,0.0,0.0,0.0
280.750004183,imu,0.0,0.0,0.0,0.0,0.0,0.0,-0.606137018271351,0.7953602423311816,-0.2824691832065582,-1.3980872631072998,-1.1387439966201782
280.750004183,pos,525.9080548043437,-5915.538138694259,694.3318215023801,0.0,0.0,0.0,0.0,0.0,0.0,0.0,0.0
280.800004184,imu,0.0,0.0,0.0,0.0,0.0,0.0,-0.6112955328527121,0.7914024080796815,-0.24746404588222504,-0.42722398042678833,-0.7822831273078918
280.800004184,pos,525.2162825941493,-5915.345994266956,694.3287041295168,0.0,0.0,0.0,0.0,0.0,0.0,0.0,0.0
280.800004184,speed,0.0,0.0,0.0,2.8166936337018447,0.0,0.0,0.0,0.0,0.0,0.0,0.0
280.850004184,pos,524.7506523709964,-5915.719189492603,694.3253444694767,0.0,0.0,0.0,0.0,0.0,0.0,0.0,0.0
280.850004184,speed,0.0,0.0,0.0,2.918769750478365,0.0,0.0,0.0,0.0,0.0,0.0,0.0
280.850004184,imu,0.0,0.0,0.0,0.0,0.0,0.0,-0.6161799908611051,0.7876053700060763,-0.25342684984207153,1.171370506286621,-0.4964354932308197
280.850004184,pos,525.0054557969347,-5916.642833702313,694.3216214733161,0.0,0.0,0.0,0.0,0.0,0.0,0.0,0.0
280.900004185,imu,0.0,0.0,0.0,0.0,0.0,0.0,-0.6198018137252039,0.7847583779119198,-0.1515684872865677,3.281155824661255,0.7592423558235168
280.900004185,speed,0.0,0.0,0.0,3.134722675379733,0.0,0.0,0.0,0.0,0.0,0.0,0.0
280.950004186,speed,0.0,0.0,0.0,3.421968862784151,0.0,0.0,0.0,0.0,0.0,0.0,0.0
280.950004186,imu,0.0,0.0,0.0,0.0,0.0,0.0,-0.6218988665609632,0.7830975672099801,-0.08982811123132706,5.165684223175049,1.4718077182769775
280.950004186,pos,525.061299855039,-5916.054966980105,694.3174476558199,0.0,0.0,0.0,0.0,0.0,0.0,0.0,0.0
281.000004187,speed,0.0,0.0,0.0,3.7076757817573727,0.0,0.0,0.0,0.0,0.0,0.0,0.0
281.000004187,pos,525.500952177611,-5916.980219921356,694.3128925693386,0.0,0.0,0.0,0.0,0.0,0.0,0.0,0.0
281.000004187,imu,0.0,0.0,0.0,0.0,0.0,0.0,-0.6234033986388464,0.7819003789265839,-0.07330387830734253,5.728696823120117,0.37256741523742676
281.050004187,imu,0.0,0.0,0.0,0.0,0.0,0.0,-0.6232414798723878,0.7820294481453215,0.06956453621387482,3.823145866394043,2.2503557205200195
281.050004187,speed,0.0,0.0,0.0,3.8362042268264376,0.0,0.0,0.0,0.0,0.0,0.0,0.0
281.050004187,pos,525.2638965307286,-5917.0426181616485,694.3081086210616,0.0,0.0,0.0,0.0,0.0,0.0,0.0,0.0
281.100004188,pos,525.0316994358968,-5917.143784952655,694.3034687048905,0.0,0.0,0.0,0.0,0.0,0.0,0.0,0.0
281.100004188,speed,0.0,0.0,0.0,3.8156280972652907,0.0,0.0,0.0,0.0,0.0,0.0,0.0
281.100004188,imu,0.0,0.0,0.0,0.0,0.0,0.0,-0.6205679771405962,0.7841526546200226,0.16732221841812134,0.10707879066467285,3.361417770385742
281.150004189,speed,0.0,0.0,0.0,2.9814092485330823,0.0,0.0,0.0,0.0,0.0,0.0,0.0
281.150004189,imu,0.0,0.0,0.0,0.0,0.0,0.0,-0.618773911415616,0.7855691227074925,0.04416055232286453,-10.125146865844727,-0.7841982245445251
281.150004189,pos,525.2492842835561,-5916.409850397969,694.2999579179965,0.0,0.0,0.0,0.0,0.0,0.0,0.0,0.0
281.20000419,speed,0.0,0.0,0.0,1.8352538148030406,0.0,0.0,0.0,0.0,0.0,0.0,0.0
281.20000419,pos,525.7530121208574,-5917.620169358096,694.2984284297722,0.0,0.0,0.0,0.0,0.0,0.0,0.0,0.0
281.20000419,imu,0.0,0.0,0.0,0.0,0.0,0.0,-0.6187938580563255,0.7855534108078,-0.02760164812207222,-21.896862030029297,-2.1386091709136963
281.25000419,speed,0.0,0.0,0.0,0.5920108875482742,0.0,0.0,0.0,0.0,0.0,0.0,0.0
281.25000419,pos,524.5344198232293,-5917.651751122898,694.2986055359324,0.0,0.0,0.0,0.0,0.0,0.0,0.0,0.0
281.25000419,imu,0.0,0.0,0.0,0.0,0.0,0.0,-0.6194023664468861,0.7850736961839936,-0.018481848761439323,-24.93111801147461,-0.6897249817848206
281.25000419,speed,0.0,0.0,0.0,0.012478750675122873,0.0,0.0,0.0,0.0,0.0,0.0,0.0
281.25000419,pos,524.5699491958969,-5917.839827201577,694.2997049247042,0.0,0.0,0.0,0.0,0.0,0.0,0.0,0.0
281.300004191,imu,0.0,0.0,0.0,0.0,0.0,0.0,-0.6195210290525653,0.7849800599770994,-0.0007059518829919398,-19.356740951538086,0.6123141050338745
281.350004192,speed,0.0,0.0,0.0,5.607498134079106e-06,0.0,0.0,0.0,0.0,0.0,0.0,0.0
281.350004192,pos,525.9239741551347,-5917.043373296572,694.2999633866898,0.0,0.0,0.0,0.0,0.0,0.0,0.0,0.0
281.350004192,imu,0.0,0.0,0.0,0.0,0.0,0.0,-0.619523274895996,0.784978287510005,-0.0004165242426097393,-2.044248342514038,0.07574759423732758
281.350004192,speed,0.0,0.0,0.0,-0.0051001384255697215,0.0,0.0,0.0,0.0,0.0,0.0,0.0
281.400004193,imu,0.0,0.0,0.0,0.0,0.0,0.0,-0.6195215905138984,0.7849796168609282,0.0003099403402302414,-0.00678723631426692,-0.023103460669517517
281.400004193,pos,524.3181396938355,-5917.749668693047,694.2997107998867,0.0,0.0,0.0,0.0,0.0,0.0,0.0,0.0
281.450004193,speed,0.0,0.0,0.0,-0.0069167580920279385,0.0,0.0,0.0,0.0,0.0,0.0,0.0
281.450004193,imu,0.0,0.0,0.0,0.0,0.0,0.0,-0.6195185024726443,0.7849820539949002,-0.0005773479351773858,-0.31913527846336365,-0.007478358689695597
281.450004193,pos,526.6759114424434,-5917.209945048899,694.2992853573348,0.0,0.0,0.0,0.0,0.0,0.0,0.0,0.0
281.500004194,speed,0.0,0.0,0.0,-0.007072562903432889,0.0,0.0,0.0,0.0,0.0,0.0,0.0
281.500004194,pos,526.1726329990499,-5917.846744183816,694.2988285516091,0.0,0.0,0.0,0.0,0.0,0.0,0.0,0.0
281.500004194,imu,0.0,0.0,0.0,0.0,0.0,0.0,-0.6195154144218026,0.784984491116724,0.001789608970284462,-0.2768421173095703,-0.07479126751422882
281.550004195,speed,0.0,0.0,0.0,-0.006461212243598046,0.0,0.0,0.0,0.0,0.0,0.0,0.0
281.550004195,imu,0.0,0.0,0.0,0.0,0.0,0.0,-0.619512139205888,0.784987075929626,0.0008050350588746369,-0.32717812061309814,-0.01850845292210579
281.550004195,pos,527.0421455650553,-5916.660090026056,694.2984023678429,0.0,0.0,0.0,0.0,0.0,0.0,0.0,0.0
281.600004196,speed,0.0,0.0,0.0,-0.005648030438052787,0.0,0.0,0.0,0.0,0.0,0.0,0.0
281.600004196,imu,0.0,0.0,0.0,0.0,0.0,0.0,-0.6195090511352906,0.7849895130264174,0.000291994190774858,-0.43369317054748535,-0.012324661947786808
281.600004196,pos,525.4602332877607,-5917.129822143339,694.2980075370695,0.0,0.0,0.0,0.0,0.0,0.0,0.0,0.0
281.650004196,speed,0.0,0.0,0.0,-0.004764384342089916,0.0,0.0,0.0,0.0,0.0,0.0,0.0
281.650004196,imu,0.0,0.0,0.0,0.0,0.0,0.0,-0.619505963055106,0.7849919501110605,-0.0008519727271050215,-0.3083667755126953,-0.05939174070954323
281.650004196,pos,525.1099032610463,-5916.635728066657,694.297695815555,0.0,0.0,0.0,0.0,0.0,0.0,0.0,0.0
281.700004197,pos,524.8255476450901,-5917.311632876973,694.2974186813108,0.0,0.0,0.0,0.0,0.0,0.0,0.0,0.0
281.700004197,speed,0.0,0.0,0.0,-0.003982775588193516,0.0,0.0,0.0,0.0,0.0,0.0,0.0
281.700004197,imu,0.0,0.0,0.0,0.0,0.0,0.0,-0.6195032492797564,0.7849940917814758,0.0006996339652687311,-0.36898183822631836,-0.021089261397719383
281.700004197,pos,525.5171699349517,-5916.863048189272,694.2971819189823,0.0,0.0,0.0,0.0,0.0,0.0,0.0,0.0
281.700004197,imu,0.0,0.0,0.0,0.0,0.0,0.0,-0.6195015648637465,0.7849954210894285,-0.0015661570942029357,-0.17455264925956726,-0.10911886394023895
281.750004198,speed,0.0,0.0,0.0,-0.0031816804036115687,0.0,0.0,0.0,0.0,0.0,0.0,0.0
281.800004199,speed,0.0,0.0,0.0,-0.0025409690496887623,0.0,0.0,0.0,0.0,0.0,0.0,0.0
281.800004199,pos,524.5925054687874,-5916.998487407342,694.2970340721881,0.0,0.0,0.0,0.0,0.0,0.0,0.0,0.0
281.800004199,imu,0.0,0.0,0.0,0.0,0.0,0.0,-0.6195002547604335,0.7849964549931153,0.0006143003702163696,-0.3110712766647339,-0.01390463300049305
281.850004199,speed,0.0,0.0,0.0,-0.0021122161344368858,0.0,0.0,0.0,0.0,0.0,0.0,0.0
281.850004199,imu,0.0,0.0,0.0,0.0,0.0,0.0,-0.6194985703393526,0.7849977842946425,0.0007498793420381844,-0.26957085728645325,-0.06089402735233307
281.850004199,pos,524.8112356633185,-5917.597369061661,694.2968726953231,0.0,0.0,0.0,0.0,0.0,0.0,0.0,0.0
281.9000042,speed,0.0,0.0,0.0,-0.0016451170755284333,0.0,0.0,0.0,0.0,0.0,0.0,0.0
281.9000042,imu,0.0,0.0,0.0,0.0,0.0,0.0,-0.6194974473903808,0.7849986704936527,0.000785124022513628,-0.33803075551986694,-0.023597748950123787
281.9000042,pos,525.992486226767,-5918.504248190743,694.2967545371082,0.0,0.0,0.0,0.0,0.0,0.0,0.0,0.0
281.950004201,pos,526.707592663196,-5916.106603057518,694.2966595639704,0.0,0.0,0.0,0.0,0.0,0.0,0.0,0.0
281.950004201,imu,0.0,0.0,0.0,0.0,0.0,0.0,-0.6194965115986025,0.7849994089916007,0.001443442772142589,-0.21531233191490173,-0.031147584319114685
281.950004201,speed,0.0,0.0,0.0,-0.0013510753134187482,0.0,0.0,0.0,0.0,0.0,0.0,0.0
282.000004202,pos,525.2681541797305,-5916.677381480873,694.2965970707623,0.0,0.0,0.0,0.0,0.0,0.0,0.0,0.0
282.000004202,imu,0.0,0.0,0.0,0.0,0.0,0.0,-0.6194961372816448,0.7849997043904676,0.00037579162744805217,-0.33780813217163086,-0.04265453293919563
282.000004202,speed,0.0,0.0,0.0,-0.0009993513618787018,0.0,0.0,0.0,0.0,0.0,0.0,0.0
282.050004202,speed,0.0,0.0,0.0,-0.0008599747781694387,0.0,0.0,0.0,0.0,0.0,0.0,0.0
282.050004202,imu,0.0,0.0,0.0,0.0,0.0,0.0,-0.6194951079092845,0.7850005167364311,-0.0006434295792132616,-0.21920807659626007,-0.0698515847325325
282.050004202,pos,525.212793921995,-5916.765600446941,694.2965522234008,0.0,0.0,0.0,0.0,0.0,0.0,0.0,0.0
282.050004202,speed,0.0,0.0,0.0,-0.0006711374275826725,0.0,0.0,0.0,0.0,0.0,0.0,0.0
282.100004203,pos,525.9697953677585,-5917.740260028776,694.2964808721931,0.0,0.0,0.0,0.0,0.0,0.0,0.0,0.0
282.100004203,imu,0.0,0.0,0.0,0.0,0.0,0.0,-0.619494078535859,0.7850013290810449,0.0002760621136985719,-0.28966110944747925,-0.03355512395501137
282.150004204,speed,0.0,0.0,0.0,-0.0005049343678872107,0.0,0.0,0.0,0.0,0.0,0.0,0.0
282.150004204,imu,0.0,0.0,0.0,0.0,0.0,0.0,-0.6194931427409115,0.7850020675749769,0.0007754110847599804,-0.2881133258342743,-0.03287259489297867
282.150004204,pos,526.1460884445769,-5917.034576994512,694.2964548204664,0.0,0.0,0.0,0.0,0.0,0.0,0.0,0.0
282.200004205,speed,0.0,0.0,0.0,-0.00015199816063789988,0.0,0.0,0.0,0.0,0.0,0.0,0.0
282.200004205,pos,524.740668007526,-5916.573742365076,694.2964450221232,0.0,0.0,0.0,0.0,0.0,0.0,0.0,0.0
282.200004205,imu,0.0,0.0,0.0,0.0,0.0,0.0,-0.6194925812635204,0.7850025106708007,0.00011149814235977829,-0.21178816258907318,-0.05117321014404297
282.250004205,speed,0.0,0.0,0.0,-0.0002707972290138083,0.0,0.0,0.0,0.0,0.0,0.0,0.0
282.250004205,imu,0.0,0.0,0.0,0.0,0.0,0.0,-0.6194925812635204,0.7850025106708007,0.0009583073551766574,-0.2885296046733856,-0.03312717750668526
282.250004205,pos,525.6696778217341,-5917.617522855232,694.2964553379234,0.0,0.0,0.0,0.0,0.0,0.0,0.0,0.0
282.300004206,speed,0.0,0.0,0.0,-0.00023656129965268492,0.0,0.0,0.0,0.0,0.0,0.0,0.0
282.300004206,pos,524.9707470662391,-5917.857850336358,694.2963850146948,0.0,0.0,0.0,0.0,0.0,0.0,0.0,0.0
282.300004206,imu,0.0,0.0,0.0,0.0,0.0,0.0,-0.6194920197858124,0.7850029537662229,-0.0013085688697174191,-0.20748843252658844,-0.04925374314188957
282.350004207,speed,0.0,0.0,0.0,-0.0001851879676121258,0.0,0.0,0.0,0.0,0.0,0.0,0.0
282.350004207,imu,0.0,0.0,0.0,0.0,0.0,0.0,-0.6194920197858124,0.7850029537662229,0.0013924195664003491,-0.28591278195381165,-0.032459504902362823
282.350004207,pos,525.274824581559,-5916.874866733177,694.2963873706642,0.0,0.0,0.0,0.0,0.0,0.0,0.0,0.0
282.400004208,speed,0.0,0.0,0.0,-0.00018802580319296467,0.0,0.0,0.0,0.0,0.0,0.0,0.0
282.400004208,imu,0.0,0.0,0.0,0.0,0.0,0.0,-0.6194920197858124,0.7850029537662229,0.0017991759814321995,-0.20234782993793488,-0.03295588865876198
282.400004208,pos,526.0722962330321,-5917.427187416947,694.2963942368424,0.0,0.0,0.0,0.0,0.0,0.0,0.0,0.0
282.450004208,speed,0.0,0.0,0.0,-0.00013139089898827098,0.0,0.0,0.0,0.0,0.0,0.0,0.0
282.450004208,imu,0.0,0.0,0.0,0.0,0.0,0.0,-0.619491832626506,0.7850031014646077,0.0013371979584917426,-0.28794094920158386,-0.05198226496577263
282.450004208,pos,525.0719257797559,-5916.692355524191,694.2963535216788,0.0,0.0,0.0,0.0,0.0,0.0,0.0,0.0
282.500004209,speed,0.0,0.0,0.0,-0.00011015946594257994,0.0,0.0,0.0,0.0,0.0,0.0,0.0
282.500004209,imu,0.0,0.0,0.0,0.0,0.0,0.0,-0.619491832626506,0.7850031014646077,0.0005429653683677316,-0.24498358368873596,-0.04292966425418854
282.500004209,pos,525.9218388003603,-5917.458537100959,694.2963591033736,0.0,0.0,0.0,0.0,0.0,0.0,0.0,0.0
282.55000421,speed,0.0,0.0,0.0,-4.83466445625419e-05,0.0,0.0,0.0,0.0,0.0,0.0,0.0
282.55000421,imu,0.0,0.0,0.0,0.0,0.0,0.0,-0.6194913647280857,0.7850034707103745,-0.000757307221647352,-0.24435772001743317,-0.04176310822367668
282.55000421,pos,525.9541821110919,-5918.285637006771,694.2963570685382,0.0,0.0,0.0,0.0,0.0,0.0,0.0,0.0
282.600004211,imu,0.0,0.0,0.0,0.0,0.0,0.0,-0.6194913647280857,0.7850034707103745,0.0008967733010649681,-0.24755847454071045,-0.04289320483803749
282.600004211,pos,524.5245464479101,-5917.613733349289,694.2963560112973,0.0,0.0,0.0,0.0,0.0,0.0,0.0,0.0
282.600004211,speed,0.0,0.0,0.0,3.117744594661846e-05,0.0,0.0,0.0,0.0,0.0,0.0,0.0
282.650004211,speed,0.0,0.0,0.0,-1.1221432249372376e-05,0.0,0.0,0.0,0.0,0.0,0.0,0.0
282.650004211,pos,525.3989175168921,-5917.698969601333,694.2963512405131,0.0,0.0,0.0,0.0,0.0,0.0,0.0,0.0
282.650004211,imu,0.0,0.0,0.0,0.0,0.0,0.0,-0.6194913647280857,0.7850034707103745,0.0018190916161984205,-0.24339915812015533,-0.04213852435350418
282.700004212,imu,0.0,0.0,0.0,0.0,0.0,0.0,-0.6194909904091912,0.7850037661067871,-0.0010313366074115038,-0.24391044676303864,-0.042973168194293976
282.700004212,speed,0.0,0.0,0.0,-2.2385901587363072e-05,0.0,0.0,0.0,0.0,0.0,0.0,0.0
282.700004212,pos,525.1865721261469,-5915.746202960192,694.2963274674287,0.0,0.0,0.0,0.0,0.0,0.0,0.0,0.0
282.750004213,speed,0.0,0.0,0.0,2.1950889624557264e-05,0.0,0.0,0.0,0.0,0.0,0.0,0.0
282.750004213,imu,0.0,0.0,0.0,0.0,0.0,0.0,-0.6194909904091912,0.7850037661067871,-0.00158179912250489,-0.24536427855491638,-0.04412776976823807
282.750004213,pos,524.9365348682512,-5916.598924844802,694.2963264468335,0.0,0.0,0.0,0.0,0.0,0.0,0.0,0.0
282.800004214,speed,0.0,0.0,0.0,-1.3028183574780666e-05,0.0,0.0,0.0,0.0,0.0,0.0,0.0
282.800004214,imu,0.0,0.0,0.0,0.0,0.0,0.0,-0.6194909904091912,0.7850037661067871,-0.0015790999168530107,-0.243559792637825,-0.04257696866989136
282.800004214,pos,525.4666373915492,-5917.653536016813,694.296332518355,0.0,0.0,0.0,0.0,0.0,0.0,0.0,0.0
282.850004214,speed,0.0,0.0,0.0,2.136688170358849e-05,0.0,0.0,0.0,0.0,0.0,0.0,0.0
282.850004214,imu,0.0,0.0,0.0,0.0,0.0,0.0,-0.6194909904091912,0.7850037661067871,-0.0004834447754547,-0.24326685070991516,-0.0421440489590168
282.850004214,pos,525.5142410844933,-5916.576302665163,694.2963186040611,0.0,0.0,0.0,0.0,0.0,0.0,0.0,0.0
282.850004214,speed,0.0,0.0,0.0,4.063620112987078e-05,0.0,0.0,0.0,0.0,0.0,0.0,0.0
282.900004215,imu,0.0,0.0,0.0,0.0,0.0,0.0,-0.6194908968294456,0.7850038399558624,0.0006598273757845163,-0.23940584063529968,-0.024915795773267746
282.900004215,pos,525.7572240093599,-5916.4819459016235,694.296328842687,0.0,0.0,0.0,0.0,0.0,0.0,0.0,0.0
282.950004216,imu,0.0,0.0,0.0,0.0,0.0,0.0,-0.6194908032496911,0.7850039138049265,-1.9992166926385835e-05,-0.25169074535369873,-0.08329235017299652
282.950004216,speed,0.0,0.0,0.0,1.979178503880832e-05,0.0,0.0,0.0,0.0,0.0,0.0,0.0
282.950004216,pos,524.7646980169094,-5917.747186346861,694.2963196993232,0.0,0.0,0.0,0.0,0.0,0.0,0.0,0.0
283.000004217,speed,0.0,0.0,0.0,7.135790565320383e-05,0.0,0.0,0.0,0.0,0.0,0.0,0.0
283.000004217,imu,0.0,0.0,0.0,0.0,0.0,0.0,-0.6194908032496911,0.7850039138049265,-0.0012115038698539138,-0.23962660133838654,-0.023140544071793556
283.000004217,pos,526.2455030235285,-5918.200540068941,694.2963181993596,0.0,0.0,0.0,0.0,0.0,0.0,0.0,0.0
283.050004217,speed,0.0,0.0,0.0,3.4547193599445435e-05,0.0,0.0,0.0,0.0,0.0,0.0,0.0
283.050004217,pos,525.5314002722582,-5917.416496626527,694.2963266574574,0.0,0.0,0.0,0.0,0.0,0.0,0.0,0.0
283.050004217,imu,0.0,0.0,0.0,0.0,0.0,0.0,-0.6194908032496911,0.7850039138049265,-0.001422060071490705,-0.24388550221920013,-0.04520154371857643
283.100004218,speed,0.0,0.0,0.0,1.742962277765907e-06,0.0,0.0,0.0,0.0,0.0,0.0,0.0
283.100004218,imu,0.0,0.0,0.0,0.0,0.0,0.0,-0.619490522510375,0.7850041353520519,-0.0002197359863203019,-0.23956109583377838,-0.022887229919433594
283.100004218,pos,525.0753418699945,-5917.3197778470585,694.2963227833072,0.0,0.0,0.0,0.0,0.0,0.0,0.0,0.0
283.150004219,imu,0.0,0.0,0.0,0.0,0.0,0.0,-0.6194904289305853,0.7850042092010714,0.0014182504964992404,-0.2079416662454605,-0.07138611376285553
283.150004219,pos,525.5698827360544,-5917.177706396456,694.2963289176726,0.0,0.0,0.0,0.0,0.0,0.0,0.0,0.0
283.150004219,speed,0.0,0.0,0.0,3.63853693739883e-05,0.0,0.0,0.0,0.0,0.0,0.0,0.0
283.20000422,speed,0.0,0.0,0.0,5.178626432163787e-05,0.0,0.0,0.0,0.0,0.0,0.0,0.0
283.20000422,imu,0.0,0.0,0.0,0.0,0.0,0.0,-0.6194904289305853,0.7850042092010714,0.0012802303535863757,-0.2819797098636627,-0.03397649899125099
283.20000422,pos,524.7918470804758,-5915.718955424725,694.2963327967432,0.0,0.0,0.0,0.0,0.0,0.0,0.0,0.0
283.25000422,speed,0.0,0.0,0.0,2.3571552699459915e-05,0.0,0.0,0.0,0.0,0.0,0.0,0.0
283.25000422,pos,526.6121680836719,-5917.538724592604,694.2963245219386,0.0,0.0,0.0,0.0,0.0,0.0,0.0,0.0
283.25000422,imu,0.0,0.0,0.0,0.0,0.0,0.0,-0.6194903353507868,0.7850042830500797,-0.0011722671333700418,-0.24983252584934235,-0.06099380552768707
283.300004221,pos,525.7230197237114,-5916.788140343709,694.2963220657446,0.0,0.0,0.0,0.0,0.0,0.0,0.0,0.0
283.300004221,imu,0.0,0.0,0.0,0.0,0.0,0.0,-0.6194903353507868,0.7850042830500797,0.0005520828999578953,-0.23816624283790588,-0.02511022984981537
283.300004221,speed,0.0,0.0,0.0,1.868306042125871e-05,0.0,0.0,0.0,0.0,0.0,0.0,0.0
283.350004222,pos,525.0759013470301,-5917.090086677821,694.2963142903,0.0,0.0,0.0,0.0,0.0,0.0,0.0,0.0
283.350004222,imu,0.0,0.0,0.0,0.0,0.0,0.0,-0.6194903353507868,0.7850042830500797,-0.00022988513228483498,-0.24154877662658691,-0.042070794850587845
283.350004222,speed,0.0,0.0,0.0,3.692720117231014e-05,0.0,0.0,0.0,0.0,0.0,0.0,0.0
283.350004222,pos,526.1000513967203,-5917.097837718142,694.2963220056422,0.0,0.0,0.0,0.0,0.0,0.0,0.0,0.0
283.400004222,imu,0.0,0.0,0.0,0.0,0.0,0.0,-0.6194903353507868,0.7850042830500797,-0.0007041190983727574,-0.24204733967781067,-0.040460698306560516
283.400004222,speed,0.0,0.0,0.0,3.6140674039167955e-05,0.0,0.0,0.0,0.0,0.0,0.0,0.0
283.400004222,pos,525.2663364309817,-5917.02713668801,694.2963299209914,0.0,0.0,0.0,0.0,0.0,0.0,0.0,0.0
283.450004223,imu,0.0,0.0,0.0,0.0,0.0,0.0,-0.6194903353507868,0.7850042830500797,0.001355001819320023,-0.24330537021160126,-0.042719341814517975
283.450004223,speed,0.0,0.0,0.0,6.666471158878751e-05,0.0,0.0,0.0,0.0,0.0,0.0,0.0
283.500004224,speed,0.0,0.0,0.0,6.994360083925294e-05,0.0,0.0,0.0,0.0,0.0,0.0,0.0
283.500004224,pos,525.5624427700906,-5916.6975892084265,694.2963196930527,0.0,0.0,0.0,0.0,0.0,0.0,0.0,0.0
283.500004224,imu,0.0,0.0,0.0,0.0,0.0,0.0,-0.6194903353507868,0.7850042830500797,-0.0011138553963974118,-0.24342921376228333,-0.04172484576702118
283.550004225,pos,525.5276581716074,-5916.2902298138715,694.2963292632198,0.0,0.0,0.0,0.0,0.0,0.0,0.0,0.0
283.550004225,imu,0.0,0.0,0.0,0.0,0.0,0.0,-0.6194900546113385,0.7850045045970379,-0.00041717037674970925,-0.23737084865570068,-0.024369560182094574
283.550004225,speed,0.0,0.0,0.0,6.732541601560675e-05,0.0,0.0,0.0,0.0,0.0,0.0,0.0
283.600004225,speed,0.0,0.0,0.0,9.270383858828819e-05,0.0,0.0,0.0,0.0,0.0,0.0,0.0
283.600004225,imu,0.0,0.0,0.0,0.0,0.0,0.0,-0.6194900546113385,0.7850045045970379,-3.102751725236885e-05,-0.24793867766857147,-0.0620187483727932
283.600004225,pos,525.3043198442884,-5916.979373669461,694.2963207905691,0.0,0.0,0.0,0.0,0.0,0.0,0.0,0.0
283.650004226,speed,0.0,0.0,0.0,7.077096544990668e-05,0.0,0.0,0.0,0.0,0.0,0.0,0.0
283.650004226,pos,524.7223135310604,-5917.238287569436,694.2963292968698,0.0,0.0,0.0,0.0,0.0,0.0,0.0,0.0
283.650004226,imu,0.0,0.0,0.0,0.0,0.0,0.0,-0.6194900546113385,0.7850045045970379,-0.0004711304500233382,-0.2440466284751892,-0.04167427867650986
283.700004227,speed,0.0,0.0,0.0,2.621086712168032e-05,0.0,0.0,0.0,0.0,0.0,0.0,0.0
283.700004227,imu,0.0,0.0,0.0,0.0,0.0,0.0,-0.6194900546113385,0.7850045045970379,0.0008361137006431818,-0.24266603589057922,-0.04269034415483475
283.700004227,pos,525.3790776725149,-5917.500096209831,694.2963348364556,0.0,0.0,0.0,0.0,0.0,0.0,0.0,0.0
283.700004227,speed,0.0,0.0,0.0,3.02379160889624e-05,0.0,0.0,0.0,0.0,0.0,0.0,0.0
283.750004228,imu,0.0,0.0,0.0,0.0,0.0,0.0,-0.6194900546113385,0.7850045045970379,-0.0003084854979533702,-0.24203775823116302,-0.04330036789178848
283.750004228,pos,524.6897999271017,-5917.684129077099,694.2963291317205,0.0,0.0,0.0,0.0,0.0,0.0,0.0,0.0
283.750004228,speed,0.0,0.0,0.0,7.905801650956646e-05,0.0,0.0,0.0,0.0,0.0,0.0,0.0
283.800004228,imu,0.0,0.0,0.0,0.0,0.0,0.0,-0.619489586712082,0.7850048738417449,-0.0008863625698722899,-0.24612058699131012,-0.062356095761060715
283.800004228,pos,524.458857708514,-5917.89018923539,694.2963279221858,0.0,0.0,0.0,0.0,0.0,0.0,0.0,0.0
283.850004229,speed,0.0,0.0,0.0,0.0,0.0,0.0,0.0,0.0,0.0,0.0,0.0
283.850004229,imu,0.0,0.0,0.0,0.0,0.0,0.0,-0.619489586712082,0.7850048738417449,0.0007145088748075068,-0.2389850616455078,-0.022363772615790367
283.850004229,pos,526.7238643428873,-5917.352750084235,694.2963329027029,0.0,0.0,0.0,0.0,0.0,0.0,0.0,0.0
283.90000423,speed,0.0,0.0,0.0,4.820792941122564e-05,0.0,0.0,0.0,0.0,0.0,0.0,0.0
283.90000423,imu,0.0,0.0,0.0,0.0,0.0,0.0,-0.619489586712082,0.7850048738417449,-0.0013089014682918787,-0.24405086040496826,-0.0408976674079895
283.90000423,pos,524.7386075657,-5916.428684848674,694.2963252964711,0.0,0.0,0.0,0.0,0.0,0.0,0.0,0.0
283.90000423,speed,0.0,0.0,0.0,2.3553963465705285e-05,0.0,0.0,0.0,0.0,0.0,0.0,0.0
283.950004231,imu,0.0,0.0,0.0,0.0,0.0,0.0,-0.619489586712082,0.7850048738417449,-0.0004381256876513362,-0.24462419748306274,-0.04107657074928284
283.950004231,pos,524.4862429248464,-5918.094029102207,694.2963276893474,0.0,0.0,0.0,0.0,0.0,0.0,0.0,0.0
284.000004231,speed,0.0,0.0,0.0,4.7349282740122714e-05,0.0,0.0,0.0,0.0,0.0,0.0,0.0
284.000004231,pos,526.2339745162736,-5917.627564644755,694.2963297130209,0.0,0.0,0.0,0.0,0.0,0.0,0.0,0.0
284.000004231,imu,0.0,0.0,0.0,0.0,0.0,0.0,-0.619489586712082,0.7850048738417449,-0.00020308018429204822,-0.24452988803386688,-0.042761560529470444
284.000004231,speed,0.0,0.0,0.0,-2.664752396278703e-05,0.0,0.0,0.0,0.0,0.0,0.0,0.0
284.050004232,imu,0.0,0.0,0.0,0.0,0.0,0.0,-0.619489586712082,0.7850048738417449,0.0007355209090746939,-0.24351613223552704,-0.041137296706438065
284.050004232,pos,525.576678957535,-5917.623447256989,694.2963304039731,0.0,0.0,0.0,0.0,0.0,0.0,0.0,0.0
284.050004232,speed,0.0,0.0,0.0,4.235939723786392e-05,0.0,0.0,0.0,0.0,0.0,0.0,0.0
284.100004233,pos,524.5051326150234,-5917.175823619039,694.2963131580555,0.0,0.0,0.0,0.0,0.0,0.0,0.0,0.0
284.100004233,imu,0.0,0.0,0.0,0.0,0.0,0.0,-0.619489586712082,0.7850048738417449,0.000607592926826328,-0.24286670982837677,-0.042881786823272705
284.150004234,speed,0.0,0.0,0.0,6.323210039889683e-05,0.0,0.0,0.0,0.0,0.0,0.0,0.0
284.150004234,pos,525.3820796981124,-5916.931449418956,694.2963267385978,0.0,0.0,0.0,0.0,0.0,0.0,0.0,0.0
284.150004234,imu,0.0,0.0,0.0,0.0,0.0,0.0,-0.619489586712082,0.7850048738417449,0.00019917618192266673,-0.243962362408638,-0.04200021177530289
284.200004234,speed,0.0,0.0,0.0,8.296913104136862e-05,0.0,0.0,0.0,0.0,0.0,0.0,0.0
284.200004234,imu,0.0,0.0,0.0,0.0,0.0,0.0,-0.619489586712082,0.7850048738417449,0.00018948360229842365,-0.24159181118011475,-0.04357665777206421
284.200004234,pos,525.248858392688,-5917.089419679486,694.2963285423489,0.0,0.0,0.0,0.0,0.0,0.0,0.0,0.0
284.250004235,speed,0.0,0.0,0.0,5.888648510135915e-05,0.0,0.0,0.0,0.0,0.0,0.0,0.0
284.250004235,pos,526.3296546063443,-5917.9367822229,694.2963313223563,0.0,0.0,0.0,0.0,0.0,0.0,0.0,0.0
284.250004235,imu,0.0,0.0,0.0,0.0,0.0,0.0,-0.619489586712082,0.7850048738417449,0.0006765821017324924,-0.24342714250087738,-0.04267584905028343
284.300004236,speed,0.0,0.0,0.0,2.8511363920414866e-05,0.0,0.0,0.0,0.0,0.0,0.0,0.0
284.300004236,pos,525.2371481009566,-5917.509018156676,694.2963214054225,0.0,0.0,0.0,0.0,0.0,0.0,0.0,0.0
284.300004236,imu,0.0,0.0,0.0,0.0,0.0,0.0,-0.619489586712082,0.7850048738417449,0.00015712941240053624,-0.24363820254802704,-0.042150914669036865
284.350004237,speed,0.0,0.0,0.0,5.2269930706857934e-05,0.0,0.0,0.0,0.0,0.0,0.0,0.0
284.350004237,imu,0.0,0.0,0.0,0.0,0.0,0.0,-0.619489586712082,0.7850048738417449,-0.00024237320758402348,-0.24226336181163788,-0.0444444976747036
284.350004237,pos,525.7052450390705,-5917.562169762872,694.2963181957252,0.0,0.0,0.0,0.0,0.0,0.0,0.0,0.0
284.400004237,speed,0.0,0.0,0.0,1.0497972649586776e-05,0.0,0.0,0.0,0.0,0.0,0.0,0.0
284.400004237,imu,0.0,0.0,0.0,0.0,0.0,0.0,-0.6194891188126055,0.785005243086173,-0.0011386930709704757,-0.2389243096113205,-0.021964682266116142
284.400004237,pos,525.1676518854459,-5917.261202587247,694.2963222343551,0.0,0.0,0.0,0.0,0.0,0.0,0.0,0.0
284.450004238,speed,0.0,0.0,0.0,1.0750819160339147e-05,0.0,0.0,0.0,0.0,0.0,0.0,0.0
284.450004238,imu,0.0,0.0,0.0,0.0,0.0,0.0,-0.6194891188126055,0.785005243086173,-0.0014538607792928815,-0.24800735712051392,-0.06010391563177109
284.450004238,pos,525.1243211179984,-5917.724598996495,694.2963210561102,0.0,0.0,0.0,0.0,0.0,0.0,0.0,0.0
284.500004239,speed,0.0,0.0,0.0,8.269833660005326e-05,0.0,0.0,0.0,0.0,0.0,0.0,0.0
284.500004239,pos,525.6711209264002,-5915.735497262142,694.2963247297921,0.0,0.0,0.0,0.0,0.0,0.0,0.0,0.0
284.500004239,imu,0.0,0.0,0.0,0.0,0.0,0.0,-0.6194891188126055,0.785005243086173,0.0010994678596034646,-0.24205054342746735,-0.04389916732907295
284.55000424,speed,0.0,0.0,0.0,4.223842935941117e-05,0.0,0.0,0.0,0.0,0.0,0.0,0.0
284.55000424,imu,0.0,0.0,0.0,0.0,0.0,0.0,-0.6194891188126055,0.785005243086173,0.00143947743345052,-0.24344226717948914,-0.04273214191198349
284.55000424,pos,525.445841539775,-5917.163777819369,694.2963420251908,0.0,0.0,0.0,0.0,0.0,0.0,0.0,0.0
284.60000424,speed,0.0,0.0,0.0,5.0205409835036396e-05,0.0,0.0,0.0,0.0,0.0,0.0,0.0
284.60000424,imu,0.0,0.0,0.0,0.0,0.0,0.0,-0.6194887444928657,0.7850055384815147,0.0007103056414052844,-0.24699024856090546,-0.06315378099679947
284.60000424,pos,525.9510888389003,-5917.937936003636,694.2963253526968,0.0,0.0,0.0,0.0,0.0,0.0,0.0,0.0
284.650004241,imu,0.0,0.0,0.0,0.0,0.0,0.0,-0.6194887444928657,0.7850055384815147,-0.0014402538072317839,-0.23881147801876068,-0.02453085593879223
284.650004241,pos,525.1266622955177,-5917.887394077246,694.2963244567151,0.0,0.0,0.0,0.0,0.0,0.0,0.0,0.0
284.650004241,speed,0.0,0.0,0.0,4.648203725181019e-05,0.0,0.0,0.0,0.0,0.0,0.0,0.0
284.700004242,speed,0.0,0.0,0.0,4.406434683715743e-05,0.0,0.0,0.0,0.0,0.0,0.0,0.0
284.700004242,pos,525.4589359322337,-5916.840266949479,694.2963245261843,0.0,0.0,0.0,0.0,0.0,0.0,0.0,0.0
284.700004242,imu,0.0,0.0,0.0,0.0,0.0,0.0,-0.6194887444928657,0.7850055384815147,0.0008375858888030052,-0.24209292232990265,-0.045976731926202774
284.750004243,speed,0.0,0.0,0.0,6.829257484094662e-05,0.0,0.0,0.0,0.0,0.0,0.0,0.0
284.750004243,imu,0.0,0.0,0.0,0.0,0.0,0.0,-0.6194887444928657,0.7850055384815147,0.0005850952584296465,-0.24407564103603363,-0.04051150754094124
284.750004243,pos,525.4643263912149,-5918.598630425601,694.2963251911826,0.0,0.0,0.0,0.0,0.0,0.0,0.0,0.0
284.800004243,speed,0.0,0.0,0.0,4.7318391125800764e-05,0.0,0.0,0.0,0.0,0.0,0.0,0.0
284.800004243,imu,0.0,0.0,0.0,0.0,0.0,0.0,-0.6194884637529685,0.7850057600279039,0.0006694470648653805,-0.23831719160079956,-0.022573355585336685
284.800004243,pos,525.7437878534795,-5917.927712078156,694.296328069074,0.0,0.0,0.0,0.0,0.0,0.0,0.0,0.0
284.850004244,speed,0.0,0.0,0.0,4.873992057778045e-05,0.0,0.0,0.0,0.0,0.0,0.0,0.0
284.850004244,pos,525.2496845730137,-5916.460228037587,694.2963259844001,0.0,0.0,0.0,0.0,0.0,0.0,0.0,0.0
284.850004244,imu,0.0,0.0,0.0,0.0,0.0,0.0,-0.6194884637529685,0.7850057600279039,-9.62869125942234e-06,-0.2461244761943817,-0.0608358196914196
284.900004245,speed,0.0,0.0,0.0,0.04145728768811679,0.0,0.0,0.0,0.0,0.0,0.0,0.0
284.900004245,imu,0.0,0.0,0.0,0.0,0.0,0.0,-0.6193478031018167,0.7851167421428188,0.01308182068169117,0.777592122554779,0.08518247306346893
284.900004245,pos,525.7466069163914,-5917.935047190363,694.2962335184612,0.0,0.0,0.0,0.0,0.0,0.0,0.0,0.0
284.950004246,speed,0.0,0.0,0.0,0.09228537768610037,0.0,0.0,0.0,0.0,0.0,0.0,0.0
284.950004246,pos,525.8793023428108,-5917.152946313204,694.296082935337,0.0,0.0,0.0,0.0,0.0,0.0,0.0,0.0
284.950004246,imu,0.0,0.0,0.0,0.0,0.0,0.0,-0.6191349493905409,0.7852846072878115,-0.008658548817038536,0.5109434723854065,0.17088733613491058
285.000004246,imu,0.0,0.0,0.0,0.0,0.0,0.0,-0.6188562238518637,0.7855042801919109,0.022226251661777496,1.1593241691589355,0.12023881822824478
285.000004246,pos,525.4595861391622,-5918.161848879219,694.2958400892539,0.0,0.0,0.0,0.0,0.0,0.0,0.0,0.0
285.000004246,speed,0.0,0.0,0.0,0.18386279030991248,0.0,0.0,0.0,0.0,0.0,0.0,0.0
285.000004246,imu,0.0,0.0,0.0,0.0,0.0,0.0,-0.6183145601458162,0.7859307251352919,0.02390030212700367,1.8073307275772095,0.2124963104724884
285.000004246,pos,525.8681268896313,-5916.8522656909945,694.2953756992147,0.0,0.0,0.0,0.0,0.0,0.0,0.0,0.0
285.050004247,speed,0.0,0.0,0.0,0.3057640638933852,0.0,0.0,0.0,0.0,0.0,0.0,0.0
285.100004248,speed,0.0,0.0,0.0,0.48519441833812094,0.0,0.0,0.0,0.0,0.0,0.0,0.0
285.100004248,pos,525.3611801653029,-5917.654613855332,694.2947065826382,0.0,0.0,0.0,0.0,0.0,0.0,0.0,0.0
285.100004248,imu,0.0,0.0,0.0,0.0,0.0,0.0,-0.6175784460742396,0.7865092898017972,0.05409872159361839,3.0164103507995605,0.5801738500595093
285.150004249,speed,0.0,0.0,0.0,0.6702073355565205,0.0,0.0,0.0,0.0,0.0,0.0,0.0
285.150004249,pos,525.8985121962799,-5917.533688993356,694.2938246858895,0.0,0.0,0.0,0.0,0.0,0.0,0.0,0.0
285.150004249,imu,0.0,0.0,0.0,0.0,0.0,0.0,-0.6163534843995834,0.7874696072030288,0.07357931137084961,3.3621416091918945,0.448768675327301
285.200004249,speed,0.0,0.0,0.0,0.9267538529840927,0.0,0.0,0.0,0.0,0.0,0.0,0.0
285.200004249,imu,0.0,0.0,0.0,0.0,0.0,0.0,-0.6148170096901482,0.7886697943979244,0.06821630150079727,4.432229042053223,0.21222947537899017
285.200004249,pos,524.9000470427234,-5918.171168231651,694.2925646726721,0.0,0.0,0.0,0.0,0.0,0.0,0.0,0.0
285.25000425,speed,0.0,0.0,0.0,1.1000680889987997,0.0,0.0,0.0,0.0,0.0,0.0,0.0
285.25000425,imu,0.0,0.0,0.0,0.0,0.0,0.0,-0.6131353479744678,0.789977876313146,0.090413898229599,3.888920783996582,0.6281324625015259
285.25000425,pos,525.5056588442337,-5917.279601668322,694.2911295291524,0.0,0.0,0.0,0.0,0.0,0.0,0.0,0.0
285.300004251,speed,0.0,0.0,0.0,1.331242823073098,0.0,0.0,0.0,0.0,0.0,0.0,0.0
285.300004251,imu,0.0,0.0,0.0,0.0,0.0,0.0,-0.610778877399264,0.7918012142721776,0.13261708617210388,3.6567628383636475,0.6296699047088623
285.300004251,pos,524.987970533027,-5916.76676720084,694.2894938490927,0.0,0.0,0.0,0.0,0.0,0.0,0.0,0.0
285.350004252,speed,0.0,0.0,0.0,1.5417780105740189,0.0,0.0,0.0,0.0,0.0,0.0,0.0
285.350004252,imu,0.0,0.0,0.0,0.0,0.0,0.0,-0.6077472374145636,0.7941305279454796,0.18514572083950043,4.3124871253967285,1.3095836639404297
285.350004252,pos,525.0657003865871,-5918.414293630001,694.287512210471,0.0,0.0,0.0,0.0,0.0,0.0,0.0,0.0
285.400004252,speed,0.0,0.0,0.0,1.7765662765543575,0.0,0.0,0.0,0.0,0.0,0.0,0.0
285.400004252,imu,0.0,0.0,0.0,0.0,0.0,0.0,-0.604344630229632,0.7967230183147775,0.17748215794563293,4.363755702972412,0.8112317323684692
285.400004252,pos,525.4600883430003,-5918.063468689574,694.2853030331057,0.0,0.0,0.0,0.0,0.0,0.0,0.0,0.0
285.450004253,imu,0.0,0.0,0.0,0.0,0.0,0.0,-0.6004284125715769,0.7996785112636055,0.20914220809936523,4.249918460845947,0.7675750851631165
285.450004253,speed,0.0,0.0,0.0,1.9978171238370246,0.0,0.0,0.0,0.0,0.0,0.0,0.0
285.450004253,pos,526.010100029149,-5918.559095187062,694.2828111643848,0.0,0.0,0.0,0.0,0.0,0.0,0.0,0.0
285.500004254,speed,0.0,0.0,0.0,2.2554978314315983,0.0,0.0,0.0,0.0,0.0,0.0,0.0
285.500004254,pos,526.2721647832119,-5918.11393026237,694.2800564051993,0.0,0.0,0.0,0.0,0.0,0.0,0.0,0.0
285.500004254,imu,0.0,0.0,0.0,0.0,0.0,0.0,-0.5960818400274523,0.8029236825436691,0.22630122303962708,4.5146379470825195,0.8785254955291748
285.550004255,speed,0.0,0.0,0.0,2.5184533368754787,0.0,0.0,0.0,0.0,0.0,0.0,0.0
285.550004255,imu,0.0,0.0,0.0,0.0,0.0,0.0,-0.5906312619407036,0.8069415793093897,0.29833248257637024,5.041716575622559,1.9032998085021973
285.550004255,pos,525.9027389843261,-5918.310565997112,694.276945941258,0.0,0.0,0.0,0.0,0.0,0.0,0.0,0.0
285.600004255,speed,0.0,0.0,0.0,0.7180870624588123,0.0,0.0,0.0,0.0,0.0,0.0,0.0
285.600004255,imu,0.0,0.0,0.0,0.0,0.0,0.0,-0.5861250966177431,0.8102205694222044,-0.11136898398399353,-2.8897459506988525,-0.2515758275985718
285.600004255,pos,525.9950656187996,-5917.185195433384,694.2764781082551,0.0,0.0,0.0,0.0,0.0,0.0,0.0,0.0
285.650004256,pos,525.9111078415519,-5918.424140118424,694.2815559613965,0.0,0.0,0.0,0.0,0.0,0.0,0.0,0.0
285.650004256,imu,0.0,0.0,0.0,0.0,0.0,0.0,-0.5855740356516244,0.810618929442602,-0.001233619754202664,-22.23244857788086,-2.6520769596099854
285.650004256,speed,0.0,0.0,0.0,1.4161778509540643,0.0,0.0,0.0,0.0,0.0,0.0,0.0
285.700004257,speed,0.0,0.0,0.0,1.5876586933769075,0.0,0.0,0.0,0.0,0.0,0.0,0.0
285.700004257,pos,525.8720437451045,-5918.063997421322,694.2811042948165,0.0,0.0,0.0,0.0,0.0,0.0,0.0,0.0
285.700004257,imu,0.0,0.0,0.0,0.0,0.0,0.0,-0.5868847759103656,0.8096704637101689,-0.062089212238788605,5.20427131652832,-2.316718578338623
285.750004258,imu,0.0,0.0,0.0,0.0,0.0,0.0,-0.5872981920719551,0.8093706404293479,0.03420155495405197,-0.32171258330345154,-0.027858421206474304
285.750004258,pos,526.2125598885435,-5918.154620676625,694.2812600538837,0.0,0.0,0.0,0.0,0.0,0.0,0.0,0.0
285.750004258,speed,0.0,0.0,0.0,1.4479200149029259,0.0,0.0,0.0,0.0,0.0,0.0,0.0
285.800004258,speed,0.0,0.0,0.0,1.5872082771464655,0.0,0.0,0.0,0.0,0.0,0.0,0.0
285.800004258,imu,0.0,0.0,0.0,0.0,0.0,0.0,-0.5867324565875442,0.8097808496048455,0.03259143978357315,2.0094428062438965,-0.5058472156524658
285.800004258,pos,526.6564061721385,-5918.172643776857,694.2801873703133,0.0,0.0,0.0,0.0,0.0,0.0,0.0,0.0
