Time,Sensor,pos x,pos y,pos z,vel,orientation x,orientation y,orientation z,orientation w,ang vel z,lin acc x,lin acc y
2298.650034252,speed,0.0,0.0,0.0,4.874399840839024,0.0,0.0,0.0,0.0,0.0,0.0,0.0
2298.650034252,imu,0.0,0.0,0.0,0.0,0.0,0.0,0.6642372767213989,0.7475217991562118,-0.2881682217121124,-27.749658584594727,-0.6507529020309448
2298.650034252,speed,0.0,0.0,0.0,3.50253419537327,0.0,0.0,0.0,0.0,0.0,0.0,0.0
2298.700034253,pos,-821.4592566224825,-5074.390184017692,707.0594127155573,0.0,0.0,0.0,0.0,0.0,0.0,0.0,0.0
2298.700034253,imu,0.0,0.0,0.0,0.0,0.0,0.0,0.6596297251890665,0.7515907301497249,-0.2100662738084793,-27.63150978088379,-0.14957714080810547
2298.750034254,imu,0.0,0.0,0.0,0.0,0.0,0.0,0.6567430311296955,0.7541144416218137,-0.11470147967338562,-27.98800277709961,0.24955390393733978
2298.750034254,pos,-821.7311178435536,-5074.819470826278,707.0592262330401,0.0,0.0,0.0,0.0,0.0,0.0,0.0,0.0
2298.750034254,speed,0.0,0.0,0.0,2.1266309141958155,0.0,0.0,0.0,0.0,0.0,0.0,0.0
2298.750034254,speed,0.0,0.0,0.0,0.7460754526130996,0.0,0.0,0.0,0.0,0.0,0.0,0.0
2298.800034254,imu,0.0,0.0,0.0,0.0,0.0,0.0,0.6555746057484467,0.7551304101264685,-0.03696374222636223,-28.07455825805664,0.07265082746744156
2298.800034254,pos,-820.817291716251,-5074.82144757961,707.0594136347395,0.0,0.0,0.0,0.0,0.0,0.0,0.0,0.0
2298.850034255,speed,0.0,0.0,0.0,-0.0031566971777912552,0.0,0.0,0.0,0.0,0.0,0.0,0.0
2298.850034255,imu,0.0,0.0,0.0,0.0,0.0,0.0,0.6555800518542592,0.7551256819965579,-3.708520671352744e-05,-23.553600311279297,-2.2418267726898193
2298.850034255,pos,-821.6134681907396,-5074.43898811484,707.0595714898496,0.0,0.0,0.0,0.0,0.0,0.0,0.0,0.0
2298.850034255,speed,0.0,0.0,0.0,-0.01307257734161289,0.0,0.0,0.0,0.0,0.0,0.0,0.0
2298.900034256,pos,-821.026760908757,-5074.437295664529,707.0586163623693,0.0,0.0,0.0,0.0,0.0,0.0,0.0,0.0
2298.900034256,imu,0.0,0.0,0.0,0.0,0.0,0.0,0.6556042551061919,0.7551046686961055,0.0002498709363862872,-2.145249128341675,-0.880120038986206
2298.950034257,speed,0.0,0.0,0.0,-0.016727345394937185,0.0,0.0,0.0,0.0,0.0,0.0,0.0
2298.950034257,pos,-822.1848796934559,-5074.3294727948405,707.0572850083308,0.0,0.0,0.0,0.0,0.0,0.0,0.0,0.0
2298.950034257,imu,0.0,0.0,0.0,0.0,0.0,0.0,0.6556551011202806,0.7550605196770354,0.0014533691573888063,-0.13799196481704712,0.0681033730506897
2298.950034257,speed,0.0,0.0,0.0,-0.017640242961608668,0.0,0.0,0.0,0.0,0.0,0.0,0.0
2299.000034257,pos,-821.774038009442,-5074.682233401976,707.0561008372742,0.0,0.0,0.0,0.0,0.0,0.0,0.0,0.0
2299.000034257,imu,0.0,0.0,0.0,0.0,0.0,0.0,0.6557031033749912,0.7550188343507768,0.0012797692324966192,-0.4078293740749359,0.04607401788234711
2299.050034258,speed,0.0,0.0,0.0,-0.017157116526549044,0.0,0.0,0.0,0.0,0.0,0.0,0.0
2299.050034258,imu,0.0,0.0,0.0,0.0,0.0,0.0,0.655736354056907,0.7549899562034945,0.0018166817026212811,-0.41823726892471313,-0.04497301205992699
2299.050034258,pos,-821.9789163314871,-5074.8282011319625,707.0548988941757,0.0,0.0,0.0,0.0,0.0,0.0,0.0,0.0
2299.100034259,speed,0.0,0.0,0.0,-0.01542963581995013,0.0,0.0,0.0,0.0,0.0,0.0,0.0
2299.100034259,pos,-821.7441632034139,-5074.636521544038,707.0539250936558,0.0,0.0,0.0,0.0,0.0,0.0,0.0,0.0
2299.100034259,imu,0.0,0.0,0.0,0.0,0.0,0.0,0.655752424857669,0.7549759978259488,0.0010114768519997597,-0.4292110204696655,-0.21985407173633575
2299.15003426,speed,0.0,0.0,0.0,-0.013436795184233057,0.0,0.0,0.0,0.0,0.0,0.0,0.0
2299.15003426,pos,-822.6022993839341,-5074.499771096742,707.0531315984931,0.0,0.0,0.0,0.0,0.0,0.0,0.0,0.0
2299.15003426,imu,0.0,0.0,0.0,0.0,0.0,0.0,0.6557615879498794,0.7549680389059212,5.2084680646657944e-05,-0.39452865719795227,-0.167251318693161
2299.15003426,imu,0.0,0.0,0.0,0.0,0.0,0.0,0.6557688272306673,0.7549617508407397,0.0011228497605770826,-0.21882200241088867,-0.011429298669099808
2299.20003426,pos,-822.5771145751171,-5075.812740204335,707.0523330013966,0.0,0.0,0.0,0.0,0.0,0.0,0.0,0.0
2299.20003426,speed,0.0,0.0,0.0,-0.01165693427178696,0.0,0.0,0.0,0.0,0.0,0.0,0.0
2299.250034261,speed,0.0,0.0,0.0,-0.010055297460220472,0.0,0.0,0.0,0.0,0.0,0.0,0.0
2299.250034261,pos,-822.0363217897673,-5074.784440014942,707.0516694074693,0.0,0.0,0.0,0.0,0.0,0.0,0.0,0.0
2299.250034261,imu,0.0,0.0,0.0,0.0,0.0,0.0,0.655774935854263,0.7549564447736951,0.0011145700700581074,-0.42731040716171265,-0.039006415754556656
2299.300034262,speed,0.0,0.0,0.0,-0.008545394063689364,0.0,0.0,0.0,0.0,0.0,0.0,0.0
2299.300034262,pos,-821.1953284390136,-5075.155773268473,707.0511087534296,0.0,0.0,0.0,0.0,0.0,0.0,0.0,0.0
2299.300034262,imu,0.0,0.0,0.0,0.0,0.0,0.0,0.6557799194693363,0.7549521158462905,-0.0007338322466239333,-0.24488064646720886,0.0028835167177021503
2299.350034262,imu,0.0,0.0,0.0,0.0,0.0,0.0,0.6557832999865449,0.7549491793880944,-0.0009105638600885868,-0.061395540833473206,8.605583570897579e-05
2299.350034262,pos,-821.534294326284,-5073.780143628744,707.0506527138427,0.0,0.0,0.0,0.0,0.0,0.0,0.0,0.0
2299.350034262,speed,0.0,0.0,0.0,-0.00718295356949886,0.0,0.0,0.0,0.0,0.0,0.0,0.0
2299.400034263,speed,0.0,0.0,0.0,-0.0059102432273630615,0.0,0.0,0.0,0.0,0.0,0.0,0.0
2299.400034263,pos,-821.3916246627529,-5074.532182885229,707.0502582132917,0.0,0.0,0.0,0.0,0.0,0.0,0.0,0.0
2299.400034263,imu,0.0,0.0,0.0,0.0,0.0,0.0,0.6557861911339259,0.7549466679958645,0.00033431113115511835,-0.04787995293736458,0.025864167138934135
2299.450034264,speed,0.0,0.0,0.0,-0.004774432667735915,0.0,0.0,0.0,0.0,0.0,0.0,0.0
2299.450034264,pos,-821.6753965742522,-5074.98604407579,707.0499903780608,0.0,0.0,0.0,0.0,0.0,0.0,0.0,0.0
2299.450034264,imu,0.0,0.0,0.0,0.0,0.0,0.0,0.655788924778051,0.7549442934008097,-0.0010260345879942179,-0.18798057734966278,-0.016298674046993256
2299.450034264,pos,-821.4603898677558,-5074.173643367527,707.0497399408252,0.0,0.0,0.0,0.0,0.0,0.0,0.0,0.0
2299.500034265,imu,0.0,0.0,0.0,0.0,0.0,0.0,0.6557906965798357,0.7549427543061354,-0.0009301764075644314,-0.17617657780647278,-0.0262068510055542
2299.500034265,speed,0.0,0.0,0.0,-0.0038848133024394294,0.0,0.0,0.0,0.0,0.0,0.0,0.0
2299.550034265,speed,0.0,0.0,0.0,-0.0031437073271410715,0.0,0.0,0.0,0.0,0.0,0.0,0.0
2299.550034265,imu,0.0,0.0,0.0,0.0,0.0,0.0,0.6557921421424255,0.7549414985972415,0.0010162685066461563,-0.16659794747829437,-0.019115030765533447
2299.550034265,pos,-820.808621789997,-5075.663343494792,707.0495906759131,0.0,0.0,0.0,0.0,0.0,0.0,0.0,0.0
2299.600034266,imu,0.0,0.0,0.0,0.0,0.0,0.0,0.6557937508201463,0.7549401011903155,-0.0002498328103683889,-0.0017872194293886423,0.004206490237265825
2299.600034266,pos,-821.6300699673532,-5074.973927846358,707.0494142072398,0.0,0.0,0.0,0.0,0.0,0.0,0.0,0.0
2299.600034266,speed,0.0,0.0,0.0,-0.00252300679972435,0.0,0.0,0.0,0.0,0.0,0.0,0.0
2299.600034266,pos,-821.729552987028,-5073.768999388132,707.0492819580859,0.0,0.0,0.0,0.0,0.0,0.0,0.0,0.0
2299.600034266,imu,0.0,0.0,0.0,0.0,0.0,0.0,0.6557943976652436,0.7549395392949559,-0.0009969421662390232,-0.23322641849517822,-0.04265514016151428
2299.650034267,speed,0.0,0.0,0.0,-0.0020045985843285255,0.0,0.0,0.0,0.0,0.0,0.0,0.0
2299.700034268,imu,0.0,0.0,0.0,0.0,0.0,0.0,0.6557955226120923,0.7549385620843148,-0.0003459042636677623,-0.07142885774374008,-0.005757501348853111
2299.700034268,pos,-822.4091992273213,-5074.60349626643,707.0492316050654,0.0,0.0,0.0,0.0,0.0,0.0,0.0,0.0
2299.700034268,speed,0.0,0.0,0.0,-0.001581389956550117,0.0,0.0,0.0,0.0,0.0,0.0,0.0
2299.750034268,speed,0.0,0.0,0.0,-0.0012849122649552312,0.0,0.0,0.0,0.0,0.0,0.0,0.0
2299.750034268,imu,0.0,0.0,0.0,0.0,0.0,0.0,0.6557958432216775,0.7549382835789751,8.302474452648312e-05,0.01466856338083744,0.003973056562244892
2299.750034268,pos,-822.0610202462072,-5074.922340820368,707.0490998149653,0.0,0.0,0.0,0.0,0.0,0.0,0.0,0.0
2299.800034269,speed,0.0,0.0,0.0,-0.00021398393317105752,0.0,0.0,0.0,0.0,0.0,0.0,0.0
2299.800034269,pos,-821.4742280807639,-5074.827486905325,707.0490382796643,0.0,0.0,0.0,0.0,0.0,0.0,0.0,0.0
2299.800034269,imu,0.0,0.0,0.0,0.0,0.0,0.0,0.6557963269481962,0.7549378633776787,0.0008848986472003162,-0.22246505320072174,-0.03266778215765953
2299.85003427,speed,0.0,0.0,0.0,-0.0005518431424106357,0.0,0.0,0.0,0.0,0.0,0.0,0.0
2299.85003427,pos,-821.4926808503569,-5074.501860448448,707.0490343673891,0.0,0.0,0.0,0.0,0.0,0.0,0.0,0.0
2299.85003427,imu,0.0,0.0,0.0,0.0,0.0,0.0,0.6557963269481962,0.7549378633776787,-0.001295130467042327,-0.06256049126386642,-0.010779059492051601
2299.900034271,speed,0.0,0.0,0.0,-0.0006080941006296473,0.0,0.0,0.0,0.0,0.0,0.0,0.0
2299.900034271,pos,-822.091703197973,-5074.574511284593,707.0490198092575,0.0,0.0,0.0,0.0,0.0,0.0,0.0,0.0
2299.900034271,imu,0.0,0.0,0.0,0.0,0.0,0.0,0.6557963269481962,0.7549378633776787,-0.0012504409532994032,-0.059960540384054184,-0.008788537234067917
2299.950034271,speed,0.0,0.0,0.0,-0.0005707311885157258,0.0,0.0,0.0,0.0,0.0,0.0,0.0
2299.950034271,imu,0.0,0.0,0.0,0.0,0.0,0.0,0.6557960063387894,0.7549381418832237,-0.0005717204767279327,0.020439527928829193,0.0015368869062513113
2299.950034271,pos,-821.014428191644,-5074.86338621235,707.0489768461257,0.0,0.0,0.0,0.0,0.0,0.0,0.0,0.0
2299.950034271,speed,0.0,0.0,0.0,-0.0004940999205152233,0.0,0.0,0.0,0.0,0.0,0.0,0.0
2300.000034272,imu,0.0,0.0,0.0,0.0,0.0,0.0,0.6557956857292644,0.7549384203886327,0.00040189805440604687,-0.05653942748904228,-0.009475120343267918
2300.000034272,pos,-822.5139308276482,-5074.926937724813,707.0489451801086,0.0,0.0,0.0,0.0,0.0,0.0,0.0,0.0
2300.000034272,speed,0.0,0.0,0.0,-0.0003848328325297623,0.0,0.0,0.0,0.0,0.0,0.0,0.0
2300.050034273,imu,0.0,0.0,0.0,0.0,0.0,0.0,0.6557956857292644,0.7549384203886327,-8.13818332972005e-05,-0.13479040563106537,-0.01938270777463913
2300.050034273,pos,-822.59530542605,-5073.548348513946,707.0488870977176,0.0,0.0,0.0,0.0,0.0,0.0,0.0,0.0
2300.100034274,speed,0.0,0.0,0.0,-0.00034126414489048126,0.0,0.0,0.0,0.0,0.0,0.0,0.0
2300.100034274,pos,-821.3549729334543,-5074.919604760568,707.0488970605375,0.0,0.0,0.0,0.0,0.0,0.0,0.0,0.0
2300.100034274,imu,0.0,0.0,0.0,0.0,0.0,0.0,0.6557956857292644,0.7549384203886327,-4.098175122635439e-05,-0.0567711777985096,-0.007978880777955055
2300.150034274,speed,0.0,0.0,0.0,-0.00024922558844582386,0.0,0.0,0.0,0.0,0.0,0.0,0.0
2300.150034274,imu,0.0,0.0,0.0,0.0,0.0,0.0,0.6557955226120923,0.7549385620843148,-0.0008768209954723716,0.023666754364967346,0.0029664281755685806
2300.150034274,pos,-822.1188882033322,-5074.384363436811,707.0488637232111,0.0,0.0,0.0,0.0,0.0,0.0,0.0,0.0
2300.200034275,speed,0.0,0.0,0.0,-0.00019896149894256217,0.0,0.0,0.0,0.0,0.0,0.0,0.0
2300.200034275,pos,-821.5793090378489,-5074.370465246397,707.0488651553105,0.0,0.0,0.0,0.0,0.0,0.0,0.0,0.0
2300.200034275,imu,0.0,0.0,0.0,0.0,0.0,0.0,0.6557955226120923,0.7549385620843148,-0.0003418260021135211,-0.13219669461250305,-0.019497310742735863
2300.250034276,speed,0.0,0.0,0.0,-4.2388643989881415e-05,0.0,0.0,0.0,0.0,0.0,0.0,0.0
2300.250034276,imu,0.0,0.0,0.0,0.0,0.0,0.0,0.6557956857292644,0.7549384203886327,-0.00014553419896401465,-0.05346883833408356,-0.0038871720898896456
2300.250034276,pos,-821.570605846595,-5074.091433682021,707.0488600392526,0.0,0.0,0.0,0.0,0.0,0.0,0.0,0.0
2300.250034276,speed,0.0,0.0,0.0,-0.0001335391504793023,0.0,0.0,0.0,0.0,0.0,0.0,0.0
2300.300034277,imu,0.0,0.0,0.0,0.0,0.0,0.0,0.6557956857292644,0.7549384203886327,0.0009574963478371501,-0.0516023226082325,-0.01207936741411686
2300.300034277,pos,-821.2349268389004,-5074.376849244824,707.0488561060722,0.0,0.0,0.0,0.0,0.0,0.0,0.0,0.0
2300.350034277,speed,0.0,0.0,0.0,-0.00014111608026824392,0.0,0.0,0.0,0.0,0.0,0.0,0.0
2300.350034277,pos,-821.2517430419821,-5075.138892668987,707.0488583826299,0.0,0.0,0.0,0.0,0.0,0.0,0.0,0.0
2300.350034277,imu,0.0,0.0,0.0,0.0,0.0,0.0,0.6557956857292644,0.7549384203886327,-0.0006541277980431914,-0.05212859809398651,-0.008171732537448406
2300.400034278,speed,0.0,0.0,0.0,-0.00010614202815919289,0.0,0.0,0.0,0.0,0.0,0.0,0.0
2300.400034278,pos,-822.5141646011689,-5074.3010842760905,707.0488201415019,0.0,0.0,0.0,0.0,0.0,0.0,0.0,0.0
2300.400034278,imu,0.0,0.0,0.0,0.0,0.0,0.0,0.6557958432216775,0.7549382835789751,-0.000761725939810276,-0.051807988435029984,-0.008230443112552166
2300.450034279,imu,0.0,0.0,0.0,0.0,0.0,0.0,0.6557958432216775,0.7549382835789751,0.0006979494355618954,-0.05208514258265495,-0.007882164791226387
2300.450034279,speed,0.0,0.0,0.0,-0.0001003291221284166,0.0,0.0,0.0,0.0,0.0,0.0,0.0
2300.450034279,pos,-822.312190961447,-5075.522502534237,707.0488333563867,0.0,0.0,0.0,0.0,0.0,0.0,0.0,0.0
2300.50003428,speed,0.0,0.0,0.0,0.04083120787779241,0.0,0.0,0.0,0.0,0.0,0.0,0.0
2300.50003428,imu,0.0,0.0,0.0,0.0,0.0,0.0,0.6559583882960577,0.7547970540642288,0.013660682365298271,1.062146544456482,0.11826832592487335
2300.50003428,pos,-821.4953196892822,-5073.90393958856,707.0487708115866,0.0,0.0,0.0,0.0,0.0,0.0,0.0,0.0
2300.55003428,speed,0.0,0.0,0.0,0.07035004195007431,0.0,0.0,0.0,0.0,0.0,0.0,0.0
2300.55003428,imu,0.0,0.0,0.0,0.0,0.0,0.0,0.6560612448674998,0.7547076539845786,-0.018754737451672554,0.5004243850708008,0.103634774684906
2300.55003428,pos,-821.1821517478563,-5075.1647971336115,707.0487371782428,0.0,0.0,0.0,0.0,0.0,0.0,0.0,0.0
2300.600034281,speed,0.0,0.0,0.0,0.14377225879447883,0.0,0.0,0.0,0.0,0.0,0.0,0.0
2300.600034281,imu,0.0,0.0,0.0,0.0,0.0,0.0,0.6562222841862111,0.75456763364024,-0.005167968571186066,0.3553639352321625,0.006992046255618334
2300.600034281,pos,-821.0567554848134,-5075.338254588619,707.0486771845698,0.0,0.0,0.0,0.0,0.0,0.0,0.0,0.0
2300.650034282,speed,0.0,0.0,0.0,0.2787169738683701,0.0,0.0,0.0,0.0,0.0,0.0,0.0
2300.650034282,pos,-821.4134576780501,-5075.256760474035,707.048456653547,0.0,0.0,0.0,0.0,0.0,0.0,0.0,0.0
2300.650034282,imu,0.0,0.0,0.0,0.0,0.0,0.0,0.6565618969281154,0.7542721494939044,0.003040325827896595,2.3550703525543213,0.1831965446472168
2300.700034283,speed,0.0,0.0,0.0,0.5045374624195632,0.0,0.0,0.0,0.0,0.0,0.0,0.0
2300.700034283,pos,-821.3705181703369,-5074.663203287255,707.0481276533947,0.0,0.0,0.0,0.0,0.0,0.0,0.0,0.0
2300.700034283,imu,0.0,0.0,0.0,0.0,0.0,0.0,0.6571881562170745,0.75372656005212,0.042485542595386505,3.8428592681884766,0.5776384472846985
2300.750034283,speed,0.0,0.0,0.0,0.6201019585326637,0.0,0.0,0.0,0.0,0.0,0.0,0.0
2300.750034283,imu,0.0,0.0,0.0,0.0,0.0,0.0,0.6583293317680157,0.7527300252639574,0.08683512359857559,3.5867350101470947,0.7566166520118713
2300.750034283,pos,-820.849438890686,-5074.298657478421,707.0477293883428,0.0,0.0,0.0,0.0,0.0,0.0,0.0,0.0
2300.800034284,speed,0.0,0.0,0.0,0.839504683049601,0.0,0.0,0.0,0.0,0.0,0.0,0.0
2300.800034284,imu,0.0,0.0,0.0,0.0,0.0,0.0,0.6600619756000755,0.7512111476588492,0.10616172105073929,3.436534881591797,0.7551121711730957
2300.800034284,pos,-821.7486676794582,-5074.812393443731,707.0473645247272,0.0,0.0,0.0,0.0,0.0,0.0,0.0,0.0
2300.850034285,speed,0.0,0.0,0.0,1.023433576509045,0.0,0.0,0.0,0.0,0.0,0.0,0.0
2300.850034285,imu,0.0,0.0,0.0,0.0,0.0,0.0,0.6620902948675311,0.7494240731670059,0.11879418045282364,3.763278007507324,0.7975971698760986
2300.850034285,pos,-822.1328407084271,-5074.571991253711,707.0470301343723,0.0,0.0,0.0,0.0,0.0,0.0,0.0,0.0
2300.850034285,speed,0.0,0.0,0.0,1.240437548768922,0.0,0.0,0.0,0.0,0.0,0.0,0.0
2300.900034286,imu,0.0,0.0,0.0,0.0,0.0,0.0,0.6648189849152434,0.747004496168708,0.16801679134368896,3.7561662197113037,0.9352810382843018
2300.900034286,pos,-822.2760332275029,-5075.720023202499,707.0465314974517,0.0,0.0,0.0,0.0,0.0,0.0,0.0,0.0
2300.950034286,speed,0.0,0.0,0.0,1.498250130626479,0.0,0.0,0.0,0.0,0.0,0.0,0.0
2300.950034286,imu,0.0,0.0,0.0,0.0,0.0,0.0,0.6682985888235181,0.7438931349169008,0.1994224637746811,4.7203688621521,1.0489968061447144
2300.950034286,pos,-821.7679719954864,-5073.362412629376,707.0460121473498,0.0,0.0,0.0,0.0,0.0,0.0,0.0,0.0
2301.000034287,pos,-822.5578991326732,-5073.974583034301,707.0455251749381,0.0,0.0,0.0,0.0,0.0,0.0,0.0,0.0
2301.000034287,speed,0.0,0.0,0.0,1.6809985997254935,0.0,0.0,0.0,0.0,0.0,0.0,0.0
2301.000034287,imu,0.0,0.0,0.0,0.0,0.0,0.0,0.6719584256020793,0.7405888699287716,0.20447777211666107,4.274722099304199,0.7749900221824646
2301.050034288,speed,0.0,0.0,0.0,1.9217109305868443,0.0,0.0,0.0,0.0,0.0,0.0,0.0
2301.050034288,pos,-822.4088002437702,-5074.043426696219,707.0449272950796,0.0,0.0,0.0,0.0,0.0,0.0,0.0,0.0
2301.050034288,imu,0.0,0.0,0.0,0.0,0.0,0.0,0.6752376884941712,0.7376002060988383,0.1744925081729889,4.832076072692871,0.03382599353790283
2301.050034288,speed,0.0,0.0,0.0,2.1685150514473652,0.0,0.0,0.0,0.0,0.0,0.0,0.0
2301.100034289,imu,0.0,0.0,0.0,0.0,0.0,0.0,0.678616537820524,0.734492746456005,0.19133108854293823,4.480416774749756,0.4169394075870514
2301.100034289,pos,-820.9367775076239,-5075.046842762982,707.044245397869,0.0,0.0,0.0,0.0,0.0,0.0,0.0,0.0
2301.150034289,speed,0.0,0.0,0.0,2.4465786405170915,0.0,0.0,0.0,0.0,0.0,0.0,0.0
2301.150034289,pos,-821.5828667471405,-5073.356306375285,707.0435545350665,0.0,0.0,0.0,0.0,0.0,0.0,0.0,0.0
2301.150034289,imu,0.0,0.0,0.0,0.0,0.0,0.0,0.6823923254496318,0.730986124469845,0.21159397065639496,5.255311012268066,0.9220210909843445
2301.20003429,speed,0.0,0.0,0.0,2.7845436418373453,0.0,0.0,0.0,0.0,0.0,0.0,0.0
2301.20003429,imu,0.0,0.0,0.0,0.0,0.0,0.0,0.6859521639159649,0.7276466373309267,0.19213607907295227,6.43167781829834,0.165227010846138
2301.20003429,pos,-821.4010173081982,-5074.22530387606,707.0426332153202,0.0,0.0,0.0,0.0,0.0,0.0,0.0,0.0
2301.250034291,imu,0.0,0.0,0.0,0.0,0.0,0.0,0.6899750107551613,0.723833188333759,0.23712359368801117,7.1028571128845215,1.3137764930725098
2301.250034291,speed,0.0,0.0,0.0,3.163149622995168,0.0,0.0,0.0,0.0,0.0,0.0,0.0
2301.250034291,pos,-822.1738371324806,-5073.7745948714555,707.0416584698453,0.0,0.0,0.0,0.0,0.0,0.0,0.0,0.0
2301.300034292,imu,0.0,0.0,0.0,0.0,0.0,0.0,0.6946652681997325,0.7193331392039392,0.2717050313949585,7.760003089904785,1.5033478736877441
2301.300034292,speed,0.0,0.0,0.0,3.541488272778992,0.0,0.0,0.0,0.0,0.0,0.0,0.0
2301.300034292,pos,-821.566483304313,-5073.080482657029,707.0405827881336,0.0,0.0,0.0,0.0,0.0,0.0,0.0,0.0
2301.350034292,speed,0.0,0.0,0.0,3.9040958388507376,0.0,0.0,0.0,0.0,0.0,0.0,0.0
2301.350034292,imu,0.0,0.0,0.0,0.0,0.0,0.0,0.699562863557748,0.7145710600989126,0.27798891067504883,7.313539981842041,1.1281019449234009
2301.350034292,pos,-821.4807201379753,-5073.0916870115425,707.0394640084241,0.0,0.0,0.0,0.0,0.0,0.0,0.0,0.0
2301.400034293,pos,-821.268401741756,-5073.926305113601,707.0381484861834,0.0,0.0,0.0,0.0,0.0,0.0,0.0,0.0
2301.400034293,imu,0.0,0.0,0.0,0.0,0.0,0.0,0.7045270162965126,0.7096771683718827,0.2821030616760254,7.0929646492004395,1.1046571731567383
2301.400034293,speed,0.0,0.0,0.0,4.257371246241146,0.0,0.0,0.0,0.0,0.0,0.0,0.0
2301.450034294,imu,0.0,0.0,0.0,0.0,0.0,-0.0,-0.7090265060205294,-0.7051818302823182,0.24619248509407043,6.946737766265869,0.39944180846214294
2301.450034294,speed,0.0,0.0,0.0,4.615869927874711,0.0,0.0,0.0,0.0,0.0,0.0,0.0
2301.450034294,pos,-821.9619140721669,-5073.271375561039,707.0368584344692,0.0,0.0,0.0,0.0,0.0,0.0,0.0,0.0
2301.500034295,pos,-821.0556287297957,-5073.797000298214,707.0354631325888,0.0,0.0,0.0,0.0,0.0,0.0,0.0,0.0
2301.500034295,speed,0.0,0.0,0.0,4.974338265293487,0.0,0.0,0.0,0.0,0.0,0.0,0.0
2301.500034295,imu,0.0,0.0,0.0,0.0,0.0,-0.0,-0.7128169012135065,-0.7013501731263593,0.20596285164356232,7.267200946807861,0.0056587569415569305
2301.550034295,speed,0.0,0.0,0.0,5.334488952296014,0.0,0.0,0.0,0.0,0.0,0.0,0.0
2301.550034295,imu,0.0,0.0,0.0,0.0,0.0,-0.0,-0.7158846225996199,-0.698218595516762,0.16297073662281036,7.270362854003906,-0.10455478727817535
2301.550034295,pos,-822.4018453226263,-5072.289553282292,707.0342382213394,0.0,0.0,0.0,0.0,0.0,0.0,0.0,0.0
2301.600034296,imu,0.0,0.0,0.0,0.0,0.0,-0.0,-0.718695764941146,-0.6953246705357585,0.19643278419971466,6.566641807556152,0.37498897314071655
2301.600034296,pos,-821.109732756253,-5071.512260669626,707.032831038377,0.0,0.0,0.0,0.0,0.0,0.0,0.0,0.0
2301.600034296,speed,0.0,0.0,0.0,5.625391733972873,0.0,0.0,0.0,0.0,0.0,0.0,0.0
2301.650034297,speed,0.0,0.0,0.0,5.626975581610653,0.0,0.0,0.0,0.0,0.0,0.0,0.0
2301.650034297,imu,0.0,0.0,0.0,0.0,0.0,-0.0,-0.7203458813344829,-0.6936150310110408,0.026781806722283363,1.9551823139190674,-0.7451814413070679
2301.650034297,pos,-821.6479940744568,-5071.860220509707,707.0315148077852,0.0,0.0,0.0,0.0,0.0,0.0,0.0,0.0
2301.700034298,imu,0.0,0.0,0.0,0.0,0.0,-0.0,-0.7216516916111925,-0.6922563369119161,0.11188841611146927,-0.13636749982833862,-0.5779513120651245
2301.700034298,speed,0.0,0.0,0.0,5.625363285551067,0.0,0.0,0.0,0.0,0.0,0.0,0.0
2301.700034298,pos,-821.9599298246088,-5071.735647550941,707.0303261644576,0.0,0.0,0.0,0.0,0.0,0.0,0.0,0.0
2301.750034298,speed,0.0,0.0,0.0,5.651140548011758,0.0,0.0,0.0,0.0,0.0,0.0,0.0
2301.750034298,pos,-821.6894605183763,-5071.625109031714,707.0291583862145,0.0,0.0,0.0,0.0,0.0,0.0,0.0,0.0
2301.750034298,imu,0.0,0.0,0.0,0.0,0.0,-0.0,-0.7221059098926659,-0.6917825199425648,-0.028412694111466408,0.10647550225257874,-0.1577398180961609
2301.800034299,speed,0.0,0.0,0.0,6.238317944455087,0.0,0.0,0.0,0.0,0.0,0.0,0.0
2301.800034299,imu,0.0,0.0,0.0,0.0,0.0,-0.0,-0.7221169603655008,-0.6917709849021494,0.009208687581121922,8.50073528289795,-0.47651904821395874
2301.800034299,pos,-821.9331152945879,-5070.939637525841,707.0274585568168,0.0,0.0,0.0,0.0,0.0,0.0,0.0,0.0
2301.8500343,speed,0.0,0.0,0.0,6.75596804584566,0.0,0.0,0.0,0.0,0.0,0.0,0.0
2301.8500343,pos,-822.1709564410872,-5070.77707005129,707.0253315306895,0.0,0.0,0.0,0.0,0.0,0.0,0.0,0.0
2301.8500343,imu,0.0,0.0,0.0,0.0,0.0,-0.0,-0.7219396357651972,-0.6919560407361255,-0.02777498960494995,11.084171295166016,-0.2929192781448364
2301.8500343,speed,0.0,0.0,0.0,7.217219830906933,0.0,0.0,0.0,0.0,0.0,0.0,0.0
2301.9000343,imu,0.0,0.0,0.0,0.0,0.0,-0.0,-0.7216705066766679,-0.692236722366736,-0.00016090041026473045,9.49147891998291,-0.4223076403141022
2301.9000343,pos,-822.7145803732941,-5070.109248408236,707.0230622198014,0.0,0.0,0.0,0.0,0.0,0.0,0.0,0.0
2301.950034301,speed,0.0,0.0,0.0,7.633954599111931,0.0,0.0,0.0,0.0,0.0,0.0,0.0
2301.950034301,imu,0.0,0.0,0.0,0.0,0.0,-0.0,-0.7210817058075779,-0.6928500368403206,-0.05668948218226433,8.546030044555664,-0.3798646032810211
2301.950034301,pos,-821.4140055493604,-5070.863109205034,707.0207231287959,0.0,0.0,0.0,0.0,0.0,0.0,0.0,0.0
2302.000034302,speed,0.0,0.0,0.0,7.978860782745645,0.0,0.0,0.0,0.0,0.0,0.0,0.0
2302.000034302,pos,-822.3502652616864,-5069.425593939775,707.0184628319334,0.0,0.0,0.0,0.0,0.0,0.0,0.0,0.0
2302.000034302,imu,0.0,0.0,0.0,0.0,0.0,-0.0,-0.720590254515059,-0.6933611505542566,-0.0010007136734202504,7.429256439208984,-0.37745410203933716
2302.050034303,imu,0.0,0.0,0.0,0.0,0.0,-0.0,-0.7199012169682665,-0.6940765359869248,-0.061465151607990265,6.879447937011719,-0.13899198174476624
2302.050034303,pos,-821.530480511112,-5069.097708486079,707.016107921545,0.0,0.0,0.0,0.0,0.0,0.0,0.0,0.0
2302.050034303,speed,0.0,0.0,0.0,8.334737922383116,0.0,0.0,0.0,0.0,0.0,0.0,0.0
2302.100034303,pos,-822.6981547331164,-5068.26234955404,707.0137042267695,0.0,0.0,0.0,0.0,0.0,0.0,0.0,0.0
2302.100034303,imu,0.0,0.0,0.0,0.0,0.0,-0.0,-0.7192030209423286,-0.6947999817698821,-0.030666247010231018,7.661996364593506,-0.7041529417037964
2302.100034303,speed,0.0,0.0,0.0,8.729203129125969,0.0,0.0,0.0,0.0,0.0,0.0,0.0
2302.150034304,speed,0.0,0.0,0.0,9.160657613568187,0.0,0.0,0.0,0.0,0.0,0.0,0.0
2302.150034304,pos,-821.4654824412779,-5067.034300533022,707.0111411601792,0.0,0.0,0.0,0.0,0.0,0.0,0.0,0.0
2302.150034304,imu,0.0,0.0,0.0,0.0,0.0,-0.0,-0.7184145461628603,-0.6956152240007485,-0.05105936899781227,8.487181663513184,-0.13778389990329742
2302.200034305,speed,0.0,0.0,0.0,9.060664760482405,0.0,0.0,0.0,0.0,0.0,0.0,0.0
2302.200034305,imu,0.0,0.0,0.0,0.0,0.0,-0.0,-0.7180636871810262,-0.695977399885937,0.0031860547605901957,1.9233871698379517,0.1480553150177002
2302.200034305,pos,-821.7469406640427,-5067.9059366803185,707.0088143339103,0.0,0.0,0.0,0.0,0.0,0.0,0.0,0.0
2302.250034306,speed,0.0,0.0,0.0,9.141088320965338,0.0,0.0,0.0,0.0,0.0,0.0,0.0
2302.250034306,imu,0.0,0.0,0.0,0.0,0.0,-0.0,-0.7174298539763968,-0.6966307519937703,-0.06310004740953445,0.285336971282959,-0.526917040348053
2302.250034306,pos,-821.4817947197631,-5067.460435962957,707.0066938163673,0.0,0.0,0.0,0.0,0.0,0.0,0.0,0.0
2302.300034306,imu,0.0,0.0,0.0,0.0,0.0,-0.0,-0.7167573550467365,-0.6973226613171312,-0.04061652347445488,4.3599371910095215,-0.4602150022983551
2302.300034306,pos,-822.5784473684284,-5067.22310328595,707.0043368327904,0.0,0.0,0.0,0.0,0.0,0.0,0.0,0.0
2302.300034306,speed,0.0,0.0,0.0,9.569967116533341,0.0,0.0,0.0,0.0,0.0,0.0,0.0
2302.300034306,imu,0.0,0.0,0.0,0.0,0.0,-0.0,-0.7160176177695552,-0.698082209373374,-0.043775469064712524,11.574124336242676,-0.36967694759368896
2302.300034306,pos,-821.0430612558753,-5066.718006308825,707.0014263897083,0.0,0.0,0.0,0.0,0.0,0.0,0.0,0.0
2302.350034307,speed,0.0,0.0,0.0,10.071342210942504,0.0,0.0,0.0,0.0,0.0,0.0,0.0
2302.400034308,speed,0.0,0.0,0.0,10.496488902619491,0.0,0.0,0.0,0.0,0.0,0.0,0.0
2302.400034308,imu,0.0,0.0,0.0,0.0,0.0,-0.0,-0.7155134637176271,-0.698598943055888,-0.021915772929787636,9.113975524902344,-0.0056212292984128
2302.400034308,pos,-821.2372016436966,-5065.929758509211,706.9983875716343,0.0,0.0,0.0,0.0,0.0,0.0,0.0,0.0
2302.450034309,speed,0.0,0.0,0.0,10.868650461846478,0.0,0.0,0.0,0.0,0.0,0.0,0.0
2302.450034309,pos,-822.0773612644923,-5065.916224662964,706.9953212520795,0.0,0.0,0.0,0.0,0.0,0.0,0.0,0.0
2302.450034309,imu,0.0,0.0,0.0,0.0,0.0,-0.0,-0.7146131189842737,-0.6995198997709559,-0.06843550503253937,7.973549842834473,-1.092594861984253
2302.500034309,speed,0.0,0.0,0.0,11.207795722418085,0.0,0.0,0.0,0.0,0.0,0.0,0.0
2302.500034309,imu,0.0,0.0,0.0,0.0,0.0,-0.0,-0.7132189358728732,-0.7009413310059313,-0.08575668931007385,6.939810276031494,-1.1414729356765747
2302.500034309,pos,-821.5794349733184,-5063.7930276200395,706.9922125840135,0.0,0.0,0.0,0.0,0.0,0.0,0.0,0.0
2302.55003431,pos,-822.1358422142787,-5063.371123669789,706.9891043376917,0.0,0.0,0.0,0.0,0.0,0.0,0.0,0.0
2302.55003431,imu,0.0,0.0,0.0,0.0,0.0,-0.0,-0.7122839489102342,-0.7018914275903667,-0.034930240362882614,6.643847942352295,0.2005372941493988
2302.55003431,speed,0.0,0.0,0.0,11.52462795041857,0.0,0.0,0.0,0.0,0.0,0.0,0.0
2302.600034311,speed,0.0,0.0,0.0,11.826420517452696,0.0,0.0,0.0,0.0,0.0,0.0,0.0
2302.600034311,imu,0.0,0.0,0.0,0.0,0.0,-0.0,-0.7119039738297377,-0.7022768200969103,-0.014611965976655483,6.000892162322998,0.11326497048139572
2302.600034311,pos,-822.0950466516017,-5063.745661842696,706.9858988482308,0.0,0.0,0.0,0.0,0.0,0.0,0.0,0.0
2302.650034312,pos,-822.033139898404,-5062.776624166085,706.9825990230652,0.0,0.0,0.0,0.0,0.0,0.0,0.0,0.0
2302.650034312,imu,0.0,0.0,0.0,0.0,0.0,-0.0,-0.711704529044217,-0.7024789415619156,-0.010830222629010677,6.153761386871338,-0.2461649775505066
2302.650034312,speed,0.0,0.0,0.0,12.11831363666673,0.0,0.0,0.0,0.0,0.0,0.0,0.0
2302.700034312,speed,0.0,0.0,0.0,12.40254622051177,0.0,0.0,0.0,0.0,0.0,0.0,0.0
2302.700034312,pos,-822.2550337232805,-5062.737657715906,706.9793411949616,0.0,0.0,0.0,0.0,0.0,0.0,0.0,0.0
2302.700034312,imu,0.0,0.0,0.0,0.0,0.0,-0.0,-0.7110679653605244,-0.7031232812516195,-0.04917614907026291,5.743896961212158,-1.0279279947280884
2302.750034313,imu,0.0,0.0,0.0,0.0,0.0,-0.0,-0.7099945927938083,-0.7042071273450407,-0.06897279620170593,5.583448886871338,-0.9560542106628418
2302.750034313,speed,0.0,0.0,0.0,12.684003284886636,0.0,0.0,0.0,0.0,0.0,0.0,0.0
2302.750034313,pos,-822.3105932553243,-5060.596181969948,706.9759200538977,0.0,0.0,0.0,0.0,0.0,0.0,0.0,0.0
2302.800034314,speed,0.0,0.0,0.0,12.963665623259766,0.0,0.0,0.0,0.0,0.0,0.0,0.0
2302.800034314,imu,0.0,0.0,0.0,0.0,0.0,-0.0,-0.7087561033739357,-0.705453602960673,-0.07125099003314972,5.823681354522705,-0.7207774519920349
2302.800034314,pos,-821.8182698321606,-5059.848857055906,706.9724446708306,0.0,0.0,0.0,0.0,0.0,0.0,0.0,0.0
2302.850034315,speed,0.0,0.0,0.0,13.227102199434235,0.0,0.0,0.0,0.0,0.0,0.0,0.0
2302.850034315,pos,-821.9305103455578,-5060.74528783327,706.968967205333,0.0,0.0,0.0,0.0,0.0,0.0,0.0,0.0
2302.850034315,imu,0.0,0.0,0.0,0.0,0.0,-0.0,-0.7075467640562695,-0.706666524375891,-0.0676494613289833,5.425227165222168,-0.6880407929420471
2302.850034315,pos,-822.7664618957025,-5059.449580895559,706.9653284576536,0.0,0.0,0.0,0.0,0.0,0.0,0.0,0.0
2302.850034315,speed,0.0,0.0,0.0,13.45013755524463,0.0,0.0,0.0,0.0,0.0,0.0,0.0
2302.900034315,imu,0.0,0.0,0.0,0.0,0.0,0.0,0.7062091822991287,0.7080032421086757,-0.0795946791768074,4.945059776306152,-1.018120288848877
2302.950034316,speed,0.0,0.0,0.0,13.641042807916703,0.0,0.0,0.0,0.0,0.0,0.0,0.0
2302.950034316,pos,-821.6112734600576,-5058.223864835337,706.9617645919691,0.0,0.0,0.0,0.0,0.0,0.0,0.0,0.0
2302.950034316,imu,0.0,0.0,0.0,0.0,0.0,0.0,0.7049787234831887,0.709228453628317,-0.06299807131290436,3.9819839000701904,-0.6883605122566223
2303.000034317,speed,0.0,0.0,0.0,13.794229883676616,0.0,0.0,0.0,0.0,0.0,0.0,0.0
2303.000034317,pos,-821.8807247503241,-5058.50858310721,706.9580192648609,0.0,0.0,0.0,0.0,0.0,0.0,0.0,0.0
2303.000034317,imu,0.0,0.0,0.0,0.0,0.0,0.0,0.7039281890803322,0.710271148659499,-0.056122761219739914,3.3363311290740967,-0.6978363394737244
2303.050034318,speed,0.0,0.0,0.0,13.91294342967325,0.0,0.0,0.0,0.0,0.0,0.0,0.0
2303.050034318,imu,0.0,0.0,0.0,0.0,0.0,0.0,0.703424977690043,0.7107695131065784,-0.013686981983482838,2.6793155670166016,0.011599411256611347
2303.050034318,pos,-821.1892953920334,-5057.424752228351,706.9542819897526,0.0,0.0,0.0,0.0,0.0,0.0,0.0,0.0
2303.100034318,speed,0.0,0.0,0.0,14.005857510338346,0.0,0.0,0.0,0.0,0.0,0.0,0.0
2303.100034318,pos,-822.4106099038125,-5056.067367907249,706.9504687233344,0.0,0.0,0.0,0.0,0.0,0.0,0.0,0.0
2303.100034318,imu,0.0,0.0,0.0,0.0,0.0,0.0,0.7035367908426416,0.7106588379319835,0.01697486825287342,2.0278353691101074,0.19735942780971527
2303.150034319,speed,0.0,0.0,0.0,14.057889212333416,0.0,0.0,0.0,0.0,0.0,0.0,0.0
2303.150034319,pos,-822.0025008119584,-5056.705282813399,706.9466235976504,0.0,0.0,0.0,0.0,0.0,0.0,0.0,0.0
2303.150034319,imu,0.0,0.0,0.0,0.0,0.0,0.0,0.7043042670229054,0.7098982317581359,0.0582975335419178,1.5319522619247437,0.6420680284500122
2303.20003432,speed,0.0,0.0,0.0,14.05771489725783,0.0,0.0,0.0,0.0,0.0,0.0,0.0
2303.20003432,pos,-821.5556197158179,-5055.592216436904,706.942780876495,0.0,0.0,0.0,0.0,0.0,0.0,0.0,0.0
2303.20003432,imu,0.0,0.0,0.0,0.0,0.0,0.0,0.705580479686664,0.7086297952281833,0.07990124821662903,0.24451564252376556,0.796133279800415
2303.250034321,speed,0.0,0.0,0.0,14.063630265370964,0.0,0.0,0.0,0.0,0.0,0.0,0.0
2303.250034321,pos,-822.7294942568826,-5055.402882164806,706.9389051553698,0.0,0.0,0.0,0.0,0.0,0.0,0.0,0.0
2303.250034321,imu,0.0,0.0,0.0,0.0,0.0,0.0,0.7063343192509545,0.7078784001848698,0.021396607160568237,0.15702341496944427,-0.42295369505882263
2303.300034321,speed,0.0,0.0,0.0,14.103608825580507,0.0,0.0,0.0,0.0,0.0,0.0,0.0
2303.300034321,pos,-822.7819290275227,-5054.350602933521,706.9348388705671,0.0,0.0,0.0,0.0,0.0,0.0,0.0,0.0
2303.300034321,imu,0.0,0.0,0.0,0.0,0.0,0.0,0.7066498883893314,0.7075633789557975,0.016599684953689575,0.4686181843280792,0.02186666987836361
2303.350034322,pos,-822.8333430535741,-5053.890534143355,706.9306915976563,0.0,0.0,0.0,0.0,0.0,0.0,0.0,0.0
2303.350034322,speed,0.0,0.0,0.0,14.185336444748419,0.0,0.0,0.0,0.0,0.0,0.0,0.0
2303.350034322,imu,0.0,0.0,0.0,0.0,0.0,-0.0,-0.707228766118196,-0.7069847752073124,0.040056951344013214,1.2629622220993042,0.8625084161758423
2303.400034323,speed,0.0,0.0,0.0,14.310420498013201,0.0,0.0,0.0,0.0,0.0,0.0,0.0
2303.400034323,imu,0.0,0.0,0.0,0.0,0.0,-0.0,-0.7080114539667931,-0.706200949483805,0.04787738621234894,2.303008794784546,0.7205145359039307
2303.400034323,pos,-821.0928482484636,-5053.623100802567,706.9264152353344,0.0,0.0,0.0,0.0,0.0,0.0,0.0,0.0
2303.450034324,speed,0.0,0.0,0.0,14.445124051457583,0.0,0.0,0.0,0.0,0.0,0.0,0.0
2303.450034324,imu,0.0,0.0,0.0,0.0,0.0,-0.0,-0.7085340531943459,-0.7056766224440142,0.019236572086811066,2.699582099914551,0.009691670536994934
2303.450034324,pos,-823.1289610908505,-5052.123983016254,706.9220876943259,0.0,0.0,0.0,0.0,0.0,0.0,0.0,0.0
2303.500034324,speed,0.0,0.0,0.0,14.546190558450235,0.0,0.0,0.0,0.0,0.0,0.0,0.0
2303.500034324,imu,0.0,0.0,0.0,0.0,0.0,-0.0,-0.7084031452931244,-0.7058080360401179,-0.021456079557538033,2.300631284713745,-0.5180243849754333
2303.500034324,pos,-821.9644964802513,-5052.084992281738,706.9178195884897,0.0,0.0,0.0,0.0,0.0,0.0,0.0,0.0
2303.550034325,speed,0.0,0.0,0.0,13.849084383075471,0.0,0.0,0.0,0.0,0.0,0.0,0.0
2303.550034325,pos,-822.2110073732763,-5049.952974607346,706.9140036296287,0.0,0.0,0.0,0.0,0.0,0.0,0.0,0.0
2303.550034325,imu,0.0,0.0,0.0,0.0,0.0,-0.0,-0.7073507917945305,-0.7068626863455524,-0.07719086855649948,-6.358801364898682,-1.225425362586975
2303.600034326,speed,0.0,0.0,0.0,12.726455908901231,0.0,0.0,0.0,0.0,0.0,0.0,0.0
2303.600034326,imu,0.0,0.0,0.0,0.0,0.0,0.0,0.7051243622959285,0.709083657756093,-0.16536183655261993,-21.277379989624023,-2.3500542640686035
2303.600034326,pos,-821.8384537066848,-5050.223379106995,706.9110722050467,0.0,0.0,0.0,0.0,0.0,0.0,0.0,0.0
2303.650034327,pos,-823.2174134995562,-5048.505342989049,706.9088255731422,0.0,0.0,0.0,0.0,0.0,0.0,0.0,0.0
2303.650034327,imu,0.0,0.0,0.0,0.0,0.0,0.0,0.7009756919179545,0.7131851648345925,-0.2774702310562134,-24.653127670288086,-4.019576549530029
2303.650034327,speed,0.0,0.0,0.0,11.477665544597905,0.0,0.0,0.0,0.0,0.0,0.0,0.0
2303.700034327,imu,0.0,0.0,0.0,0.0,0.0,0.0,0.6948298159368916,0.7191741978721882,-0.3791072368621826,-25.99836540222168,-4.757059574127197
2303.700034327,pos,-822.165299682199,-5049.987754821908,706.9069543993053,0.0,0.0,0.0,0.0,0.0,0.0,0.0,0.0
2303.700034327,speed,0.0,0.0,0.0,10.16930013578286,0.0,0.0,0.0,0.0,0.0,0.0,0.0
2303.750034328,speed,0.0,0.0,0.0,8.839769746020732,0.0,0.0,0.0,0.0,0.0,0.0,0.0
2303.750034328,pos,-821.7670935631501,-5047.635007220664,706.9053943997903,0.0,0.0,0.0,0.0,0.0,0.0,0.0,0.0
2303.750034328,imu,0.0,0.0,0.0,0.0,0.0,0.0,0.6870869818012555,0.7265751712240387,-0.4513249099254608,-26.628076553344727,-4.752577304840088
2303.800034329,pos,-821.869081070613,-5046.8906979298745,706.9040842288744,0.0,0.0,0.0,0.0,0.0,0.0,0.0,0.0
2303.800034329,speed,0.0,0.0,0.0,7.4955770401434005,0.0,0.0,0.0,0.0,0.0,0.0,0.0
2303.800034329,imu,0.0,0.0,0.0,0.0,0.0,0.0,0.678467756778266,0.7346301811199072,-0.4746093153953552,-27.05821990966797,-4.2667999267578125
2303.85003433,pos,-821.6806458822454,-5047.493467223702,706.9030548307974,0.0,0.0,0.0,0.0,0.0,0.0,0.0,0.0
2303.85003433,imu,0.0,0.0,0.0,0.0,0.0,0.0,0.6699361155352057,0.7424187505051306,-0.4406939446926117,-27.41800308227539,-3.186962366104126
2303.85003433,speed,0.0,0.0,0.0,6.137847464908842,0.0,0.0,0.0,0.0,0.0,0.0,0.0
2303.85003433,pos,-821.3225715146413,-5046.511139227669,706.9022259101453,0.0,0.0,0.0,0.0,0.0,0.0,0.0,0.0
2303.90003433,imu,0.0,0.0,0.0,0.0,0.0,0.0,0.662610675950485,0.7489640125643164,-0.35088467597961426,-27.417991638183594,-1.5393131971359253
2303.90003433,speed,0.0,0.0,0.0,4.7672436869522485,0.0,0.0,0.0,0.0,0.0,0.0,0.0
2303.950034331,speed,0.0,0.0,0.0,3.3992551952817642,0.0,0.0,0.0,0.0,0.0,0.0,0.0
2303.950034331,pos,-822.5150499440716,-5046.660865200441,706.9014008829677,0.0,0.0,0.0,0.0,0.0,0.0,0.0,0.0
2303.950034331,imu,0.0,0.0,0.0,0.0,0.0,0.0,0.6569958701005335,0.7538941747160823,-0.25776949524879456,-27.673358917236328,-0.07724330574274063
2304.000034332,pos,-821.0062059643412,-5047.612991249452,706.9010341629901,0.0,0.0,0.0,0.0,0.0,0.0,0.0,0.0
2304.000034332,speed,0.0,0.0,0.0,2.0188931271787776,0.0,0.0,0.0,0.0,0.0,0.0,0.0
2304.000034332,imu,0.0,0.0,0.0,0.0,0.0,0.0,0.6532923134503698,0.7571057741073329,-0.15293720364570618,-27.968393325805664,0.3285968005657196
2304.050034333,speed,0.0,0.0,0.0,0.6411542179061128,0.0,0.0,0.0,0.0,0.0,0.0,0.0
2304.050034333,pos,-822.4576578696718,-5046.376034517888,706.9011261478763,0.0,0.0,0.0,0.0,0.0,0.0,0.0,0.0
2304.050034333,imu,0.0,0.0,0.0,0.0,0.0,0.0,0.6515332809175177,0.7586200523693365,-0.06069084629416466,-27.918746948242188,0.27394771575927734
2304.100034333,speed,0.0,0.0,0.0,-0.0038477771291194466,0.0,0.0,0.0,0.0,0.0,0.0,0.0
2304.100034333,pos,-821.9425415585097,-5046.969585035617,706.9011488976698,0.0,0.0,0.0,0.0,0.0,0.0,0.0,0.0
2304.100034333,imu,0.0,0.0,0.0,0.0,0.0,0.0,0.6514876328952065,0.7586592543326686,0.0018636671593412757,-22.065839767456055,-1.533031702041626
2304.150034334,speed,0.0,0.0,0.0,-0.01325087107416315,0.0,0.0,0.0,0.0,0.0,0.0,0.0
2304.150034334,pos,-821.4300176773727,-5046.738506416248,706.9001788087834,0.0,0.0,0.0,0.0,0.0,0.0,0.0,0.0
2304.150034334,imu,0.0,0.0,0.0,0.0,0.0,0.0,0.6515320826588183,0.7586210814802491,0.0023885269183665514,-1.6006896495819092,-0.7469289302825928
2304.200034335,speed,0.0,0.0,0.0,-0.016921866353715797,0.0,0.0,0.0,0.0,0.0,0.0,0.0
2304.200034335,pos,-822.9256404671235,-5047.7195803138575,706.8988890184423,0.0,0.0,0.0,0.0,0.0,0.0,0.0,0.0
2304.200034335,imu,0.0,0.0,0.0,0.0,0.0,0.0,0.6515900493866073,0.7585712936437542,0.002135710557922721,-0.23089556396007538,0.0767252966761589
2304.250034336,imu,0.0,0.0,0.0,0.0,0.0,0.0,0.6512979218986674,0.7588221246975323,-0.022955337539315224,0.8277774453163147,-0.656084418296814
2304.250034336,speed,0.0,0.0,0.0,0.07619784305509364,0.0,0.0,0.0,0.0,0.0,0.0,0.0
2304.250034336,pos,-821.6438188843366,-5047.200758533109,706.8975825683261,0.0,0.0,0.0,0.0,0.0,0.0,0.0,0.0
2304.250034336,imu,0.0,0.0,0.0,0.0,0.0,0.0,0.651030174662837,0.7590518504545496,0.003887999104335904,2.912801504135132,-0.09638279676437378
2304.300034336,speed,0.0,0.0,0.0,0.2365391473486696,0.0,0.0,0.0,0.0,0.0,0.0,0.0
2304.300034336,pos,-821.2151071136757,-5046.95819496246,706.8960880545478,0.0,0.0,0.0,0.0,0.0,0.0,0.0,0.0
2304.350034337,speed,0.0,0.0,0.0,0.46465331244138997,0.0,0.0,0.0,0.0,0.0,0.0,0.0
2304.350034337,imu,0.0,0.0,0.0,0.0,0.0,0.0,0.6512379966684028,0.7588735544840955,0.027804985642433167,3.7610208988189697,0.5518774390220642
2304.350034337,pos,-822.856924932476,-5046.922533162264,706.8946880930785,0.0,0.0,0.0,0.0,0.0,0.0,0.0,0.0
2304.400034338,speed,0.0,0.0,0.0,0.7076550426410255,0.0,0.0,0.0,0.0,0.0,0.0,0.0
2304.400034338,pos,-821.5979774236663,-5048.138459006535,706.89331002327,0.0,0.0,0.0,0.0,0.0,0.0,0.0,0.0
2304.400034338,imu,0.0,0.0,0.0,0.0,0.0,0.0,0.652135979682904,0.7581020142454569,0.06041014939546585,4.2321648597717285,1.024804711341858
2304.450034338,speed,0.0,0.0,0.0,0.8979495850933529,0.0,0.0,0.0,0.0,0.0,0.0,0.0
2304.450034338,imu,0.0,0.0,0.0,0.0,0.0,0.0,0.6537985263198681,0.7566686771513466,0.09276874363422394,3.4671599864959717,1.0627632141113281
2304.450034338,pos,-822.5746190000305,-5046.6159033288795,706.8920947509123,0.0,0.0,0.0,0.0,0.0,0.0,0.0,0.0
2304.500034339,speed,0.0,0.0,0.0,1.0991677712259067,0.0,0.0,0.0,0.0,0.0,0.0,0.0
2304.500034339,imu,0.0,0.0,0.0,0.0,0.0,0.0,0.6561061940473856,0.7546685776767537,0.1363646537065506,3.606745719909668,0.9296906590461731
2304.500034339,pos,-821.8223003804657,-5046.974743029732,706.8909272276339,0.0,0.0,0.0,0.0,0.0,0.0,0.0,0.0
2304.55003434,imu,0.0,0.0,0.0,0.0,0.0,0.0,0.6581642082952557,0.7528744084633766,0.11951573193073273,3.6527583599090576,0.22826486825942993
2304.55003434,pos,-821.6669062510438,-5048.46085873167,706.8899248757548,0.0,0.0,0.0,0.0,0.0,0.0,0.0,0.0
2304.55003434,speed,0.0,0.0,0.0,1.317837992100597,0.0,0.0,0.0,0.0,0.0,0.0,0.0
2304.55003434,speed,0.0,0.0,0.0,1.5388454125722977,0.0,0.0,0.0,0.0,0.0,0.0,0.0
2304.600034341,imu,0.0,0.0,0.0,0.0,0.0,0.0,0.6608775275852116,0.7504937664850108,0.17089256644248962,4.25594425201416,0.7605026960372925
2304.600034341,pos,-821.4070184967526,-5046.7649202908,706.8889578948838,0.0,0.0,0.0,0.0,0.0,0.0,0.0,0.0
2304.600034341,pos,-821.7327279174376,-5046.856497968463,706.8879075533237,0.0,0.0,0.0,0.0,0.0,0.0,0.0,0.0
2304.650034341,imu,0.0,0.0,0.0,0.0,0.0,0.0,0.6637650313240431,0.7479411629208491,0.13759289681911469,4.7208733558654785,0.4140062928199768
2304.650034341,speed,0.0,0.0,0.0,1.7592132365400157,0.0,0.0,0.0,0.0,0.0,0.0,0.0
2304.700034342,speed,0.0,0.0,0.0,1.9967753910392327,0.0,0.0,0.0,0.0,0.0,0.0,0.0
2304.700034342,imu,0.0,0.0,0.0,0.0,0.0,0.0,0.6669138033272896,0.7451348729804084,0.18870829045772552,4.2096123695373535,0.827818751335144
2304.700034342,pos,-822.9322241972475,-5045.804493836383,706.8868374801964,0.0,0.0,0.0,0.0,0.0,0.0,0.0,0.0
2304.700034342,speed,0.0,0.0,0.0,2.238285570918879,0.0,0.0,0.0,0.0,0.0,0.0,0.0
2304.750034343,imu,0.0,0.0,0.0,0.0,0.0,0.0,0.6707810388433185,0.7416554442113119,0.21710863709449768,4.7251973152160645,1.4863089323043823
2304.750034343,pos,-821.8870537202297,-5046.794757932919,706.8857734273254,0.0,0.0,0.0,0.0,0.0,0.0,0.0,0.0
2304.800034344,speed,0.0,0.0,0.0,2.525945881073417,0.0,0.0,0.0,0.0,0.0,0.0,0.0
2304.800034344,pos,-821.2097889504023,-5046.741866352524,706.8847011906255,0.0,0.0,0.0,0.0,0.0,0.0,0.0,0.0
2304.800034344,imu,0.0,0.0,0.0,0.0,0.0,0.0,0.6753696752914581,0.7374793567936058,0.2688499093055725,5.002996921539307,1.3526040315628052
2304.850034344,speed,0.0,0.0,0.0,2.860905260161889,0.0,0.0,0.0,0.0,0.0,0.0,0.0
2304.850034344,pos,-821.5674490069692,-5046.344179901686,706.883447959855,0.0,0.0,0.0,0.0,0.0,0.0,0.0,0.0
2304.850034344,imu,0.0,0.0,0.0,0.0,0.0,0.0,0.6803950550495306,0.7328455287877155,0.28170737624168396,6.302579879760742,1.4833486080169678
2304.900034345,imu,0.0,0.0,0.0,0.0,0.0,0.0,0.6851424523590767,0.7284091020679178,0.2560214102268219,7.768235206604004,0.24027109146118164
2304.900034345,pos,-822.1635349516199,-5045.97562176622,706.8821157237267,0.0,0.0,0.0,0.0,0.0,0.0,0.0,0.0
2304.900034345,speed,0.0,0.0,0.0,3.2745234437352515,0.0,0.0,0.0,0.0,0.0,0.0,0.0
2304.950034346,pos,-822.4494174104819,-5045.3257752128775,706.8806071609706,0.0,0.0,0.0,0.0,0.0,0.0,0.0,0.0
2304.950034346,speed,0.0,0.0,0.0,3.6555859351309974,0.0,0.0,0.0,0.0,0.0,0.0,0.0
2304.950034346,imu,0.0,0.0,0.0,0.0,0.0,0.0,0.6897693567741126,0.7240291668540896,0.26097047328948975,7.760706901550293,0.6006110906600952
2304.950034346,speed,0.0,0.0,0.0,4.006871048130583,0.0,0.0,0.0,0.0,0.0,0.0,0.0
2304.950034346,imu,0.0,0.0,0.0,0.0,0.0,0.0,0.6949442784358272,0.7190635923680934,0.30148032307624817,7.097135066986084,1.700156331062317
2304.950034346,pos,-822.4363862586428,-5045.806436735072,706.8790244022739,0.0,0.0,0.0,0.0,0.0,0.0,0.0,0.0
2305.050034347,speed,0.0,0.0,0.0,4.371028055130326,0.0,0.0,0.0,0.0,0.0,0.0,0.0
2305.050034347,imu,0.0,0.0,0.0,0.0,0.0,0.0,0.6997251267545826,0.7144121688411272,0.2584497630596161,7.1537275314331055,0.35171857476234436
2305.050034347,pos,-822.1858858935616,-5046.328799813358,706.877373455819,0.0,0.0,0.0,0.0,0.0,0.0,0.0,0.0
2305.100034348,speed,0.0,0.0,0.0,4.726908254375297,0.0,0.0,0.0,0.0,0.0,0.0,0.0
2305.100034348,imu,0.0,0.0,0.0,0.0,0.0,0.0,0.7040656497150677,0.7101348892226741,0.2405560463666916,7.080976486206055,0.47802814841270447
2305.100034348,pos,-821.7312367356867,-5044.8401647733135,706.8756369287071,0.0,0.0,0.0,0.0,0.0,0.0,0.0,0.0
2305.100034348,speed,0.0,0.0,0.0,5.087468506242172,0.0,0.0,0.0,0.0,0.0,0.0,0.0
2305.150034349,pos,-822.4201807753687,-5043.752171912165,706.8738694894917,0.0,0.0,0.0,0.0,0.0,0.0,0.0,0.0
2305.150034349,imu,0.0,0.0,0.0,0.0,0.0,-0.0,-0.7077969161111859,-0.706415972033118,0.20221106708049774,7.089823246002197,0.1308613121509552
2305.20003435,pos,-822.4033424195212,-5043.405988046323,706.8721318767039,0.0,0.0,0.0,0.0,0.0,0.0,0.0,0.0
2305.20003435,imu,0.0,0.0,0.0,0.0,0.0,-0.0,-0.7097650411714069,-0.7044384900975749,0.05861515551805496,7.160611152648926,-1.7842026948928833
2305.20003435,speed,0.0,0.0,0.0,5.436432161605087,0.0,0.0,0.0,0.0,0.0,0.0,0.0
2305.25003435,speed,0.0,0.0,0.0,5.518413669998592,0.0,0.0,0.0,0.0,0.0,0.0,0.0
2305.25003435,imu,0.0,0.0,0.0,0.0,0.0,-0.0,-0.7105272915545148,-0.703669644049113,0.0322059765458107,3.8798282146453857,-1.1826963424682617
2305.25003435,pos,-821.5543614490418,-5044.54930642785,706.870452145326,0.0,0.0,0.0,0.0,0.0,0.0,0.0,0.0
2305.300034351,pos,-822.5179356825414,-5045.242991499737,706.868900659988,0.0,0.0,0.0,0.0,0.0,0.0,0.0,0.0
2305.300034351,imu,0.0,0.0,0.0,0.0,0.0,-0.0,-0.7104858516470759,-0.7037114853470343,-0.011972930282354355,0.10984228551387787,-0.7110636830329895
2305.300034351,speed,0.0,0.0,0.0,5.504654723117352,0.0,0.0,0.0,0.0,0.0,0.0,0.0
2305.350034352,speed,0.0,0.0,0.0,5.524861728485492,0.0,0.0,0.0,0.0,0.0,0.0,0.0
2305.350034352,imu,0.0,0.0,0.0,0.0,0.0,-0.0,-0.7100630910281595,-0.7041380594454015,-0.030871674418449402,0.014887787401676178,-0.6763129830360413
2305.350034352,pos,-821.9673304119035,-5044.205349907715,706.8673440293346,0.0,0.0,0.0,0.0,0.0,0.0,0.0,0.0
2305.350034352,speed,0.0,0.0,0.0,5.832404888089493,0.0,0.0,0.0,0.0,0.0,0.0,0.0
2305.400034353,imu,0.0,0.0,0.0,0.0,0.0,-0.0,-0.7094319145818476,-0.7047739769406459,-0.040375612676143646,2.168762445449829,-0.42184388637542725
2305.400034353,pos,-822.3600225675908,-5043.557555733202,706.8656326998516,0.0,0.0,0.0,0.0,0.0,0.0,0.0,0.0
2305.450034353,speed,0.0,0.0,0.0,6.2084515374922775,0.0,0.0,0.0,0.0,0.0,0.0,0.0
2305.450034353,imu,0.0,0.0,0.0,0.0,0.0,-0.0,-0.7086540026521299,-0.7055561668110591,-0.04685722291469574,-799981.0625,3507.812744140625
2305.450034353,pos,-822.3202124209148,-5043.013276360103,706.8633405453032,0.0,0.0,0.0,0.0,0.0,0.0,0.0,0.0
2305.500034354,speed,0.0,0.0,0.0,6.567527870166078,0.0,0.0,0.0,0.0,0.0,0.0,0.0
2305.500034354,imu,0.0,0.0,0.0,0.0,0.0,-0.0,-0.7077750208212156,-0.706437909445358,-0.05168457701802254,800002.5,-1492.8128662109375
2305.500034354,pos,-822.069914159415,-5043.45712712151,706.8609916252121,0.0,0.0,0.0,0.0,0.0,0.0,0.0,0.0
2305.550034355,imu,0.0,0.0,0.0,0.0,0.0,0.0,0.7071067811865475,0.7071067811865476,-0.036838922649621964,7.470980167388916,-0.06297319382429123
2305.550034355,speed,0.0,0.0,0.0,6.964303414319827,0.0,0.0,0.0,0.0,0.0,0.0,0.0
2305.550034355,pos,-822.645661634338,-5042.953873899739,706.8584601341661,0.0,0.0,0.0,0.0,0.0,0.0,0.0,0.0
2305.600034356,speed,0.0,0.0,0.0,7.353930303447547,0.0,0.0,0.0,0.0,0.0,0.0,0.0
2305.600034356,imu,0.0,0.0,0.0,0.0,0.0,0.0,0.7062175374112047,0.7079949080698629,-0.058714546263217926,7.8405842781066895,-0.4583786427974701
2305.600034356,pos,-821.4186217619766,-5042.447279185837,706.855802825549,0.0,0.0,0.0,0.0,0.0,0.0,0.0,0.0
2305.650034356,speed,0.0,0.0,0.0,7.790876210234623,0.0,0.0,0.0,0.0,0.0,0.0,0.0
2305.650034356,pos,-822.2815036455125,-5042.70182140109,706.8530226138919,0.0,0.0,0.0,0.0,0.0,0.0,0.0,0.0
2305.650034356,imu,0.0,0.0,0.0,0.0,0.0,0.0,0.7052092009508106,0.7089992827177748,-0.0591040700674057,8.418473243713379,-0.6327909231185913
2305.700034357,speed,0.0,0.0,0.0,8.232863015128888,0.0,0.0,0.0,0.0,0.0,0.0,0.0
2305.700034357,imu,0.0,0.0,0.0,0.0,0.0,0.0,0.704272355853622,0.709929890045763,-0.04619188606739044,8.877364158630371,-0.26933273673057556
2305.700034357,pos,-821.4857138086039,-5041.2378825569085,706.8499416730886,0.0,0.0,0.0,0.0,0.0,0.0,0.0,0.0
2305.750034358,speed,0.0,0.0,0.0,8.700325918168842,0.0,0.0,0.0,0.0,0.0,0.0,0.0
2305.750034358,pos,-822.5287583204687,-5041.559020449207,706.8466777955285,0.0,0.0,0.0,0.0,0.0,0.0,0.0,0.0
2305.750034358,imu,0.0,0.0,0.0,0.0,0.0,0.0,0.703380378364461,0.7108136488080878,-0.04864171892404556,9.199576377868652,-0.3228961229324341
2305.800034359,speed,0.0,0.0,0.0,8.990355695587555,0.0,0.0,0.0,0.0,0.0,0.0,0.0
2305.800034359,pos,-822.2459988605991,-5040.125579145051,706.8433311252693,0.0,0.0,0.0,0.0,0.0,0.0,0.0,0.0
2305.800034359,imu,0.0,0.0,0.0,0.0,0.0,0.0,0.7031878240370627,0.7110041379106179,0.006756509654223919,7.550204753875732,0.7524983286857605
2305.850034359,pos,-821.5267955400146,-5039.8974980679895,706.8403909490539,0.0,0.0,0.0,0.0,0.0,0.0,0.0,0.0
2305.850034359,imu,0.0,0.0,0.0,0.0,0.0,0.0,0.7034991377215921,0.7106961117277738,0.0214834026992321,-0.5111837387084961,0.4227055013179779
2305.850034359,speed,0.0,0.0,0.0,8.814780009227892,0.0,0.0,0.0,0.0,0.0,0.0,0.0
2305.90003436,speed,0.0,0.0,0.0,9.022040167700235,0.0,0.0,0.0,0.0,0.0,0.0,0.0
2305.90003436,pos,-821.9409797191643,-5039.633179895311,706.8374836870626,0.0,0.0,0.0,0.0,0.0,0.0,0.0,0.0
2305.90003436,imu,0.0,0.0,0.0,0.0,0.0,0.0,0.704002198225507,0.7101977927969461,0.03262621909379959,0.8107755184173584,0.2395971268415451
2305.950034361,imu,0.0,0.0,0.0,0.0,0.0,0.0,0.704259164324309,0.7099429762066992,0.005913132335990667,9.367119789123535,-0.2923365533351898
2305.950034361,pos,-821.6590730455954,-5039.796948737956,706.8340124127556,0.0,0.0,0.0,0.0,0.0,0.0,0.0,0.0
2305.950034361,speed,0.0,0.0,0.0,9.584820157071173,0.0,0.0,0.0,0.0,0.0,0.0,0.0
2305.950034361,speed,0.0,0.0,0.0,10.041279958241576,0.0,0.0,0.0,0.0,0.0,0.0,0.0
2306.000034362,pos,-822.2103281232928,-5039.505720080322,706.8301322411266,0.0,0.0,0.0,0.0,0.0,0.0,0.0,0.0
2306.000034362,imu,0.0,0.0,0.0,0.0,0.0,0.0,0.7052052628687614,0.7090031997263491,0.07833049446344376,10.05136489868164,1.402809739112854
2306.050034362,speed,0.0,0.0,0.0,10.439362027853694,0.0,0.0,0.0,0.0,0.0,0.0,0.0
2306.050034362,pos,-822.0653689397584,-5037.735314209919,706.8260438049933,0.0,0.0,0.0,0.0,0.0,0.0,0.0,0.0
2306.050034362,imu,0.0,0.0,0.0,0.0,0.0,0.0,0.7066183313551402,0.7075948938431349,0.0800246149301529,8.44143295288086,0.8651304841041565
2306.100034363,speed,0.0,0.0,0.0,10.794548548211493,0.0,0.0,0.0,0.0,0.0,0.0,0.0
2306.100034363,imu,0.0,0.0,0.0,0.0,0.0,-0.0,-0.7080197041183977,-0.7061926780844564,0.0787966176867485,7.403852462768555,0.5795478820800781
2306.100034363,pos,-822.1025438532325,-5037.836766251668,706.8218383232143,0.0,0.0,0.0,0.0,0.0,0.0,0.0,0.0
2306.150034364,speed,0.0,0.0,0.0,11.119375240755819,0.0,0.0,0.0,0.0,0.0,0.0,0.0
2306.150034364,pos,-821.5631342963114,-5036.901231211689,706.8175059556318,0.0,0.0,0.0,0.0,0.0,0.0,0.0,0.0
2306.150034364,imu,0.0,0.0,0.0,0.0,0.0,-0.0,-0.7097732707329417,-0.7044301982120458,0.11173079162836075,6.706654071807861,1.3598053455352783
2306.200034365,speed,0.0,0.0,0.0,11.382446156966365,0.0,0.0,0.0,0.0,0.0,0.0,0.0
2306.200034365,imu,0.0,0.0,0.0,0.0,0.0,-0.0,-0.711633344677466,-0.7025510534780821,0.10488856583833694,5.9159255027771,0.9847196936607361
2306.200034365,pos,-821.0438886688731,-5036.447391843445,706.8130837975264,0.0,0.0,0.0,0.0,0.0,0.0,0.0,0.0
2306.250034365,pos,-822.3514725504689,-5036.60115072721,706.8087201301805,0.0,0.0,0.0,0.0,0.0,0.0,0.0,0.0
2306.250034365,imu,0.0,0.0,0.0,0.0,0.0,-0.0,-0.7130145209315563,-0.7011492658063213,0.06508460640907288,4.163360118865967,0.2892180383205414
2306.250034365,speed,0.0,0.0,0.0,11.579743490162778,0.0,0.0,0.0,0.0,0.0,0.0,0.0
2306.300034366,speed,0.0,0.0,0.0,11.786281504115756,0.0,0.0,0.0,0.0,0.0,0.0,0.0
2306.300034366,imu,0.0,0.0,0.0,0.0,0.0,-0.0,-0.7139783996012241,-0.7001677262648391,0.049731187522411346,4.098260879516602,0.42573079466819763
2306.300034366,pos,-822.344481183487,-5034.455683418837,706.8043481831564,0.0,0.0,0.0,0.0,0.0,0.0,0.0,0.0
2306.350034367,speed,0.0,0.0,0.0,12.010443187905514,0.0,0.0,0.0,0.0,0.0,0.0,0.0
2306.350034367,pos,-822.2139988709808,-5034.490318366266,706.799839644792,0.0,0.0,0.0,0.0,0.0,0.0,0.0,0.0
2306.350034367,imu,0.0,0.0,0.0,0.0,0.0,-0.0,-0.7147370242268535,-0.6993932986520118,0.04097935929894447,4.389570713043213,0.5335633754730225
2306.400034368,speed,0.0,0.0,0.0,12.205355833272264,0.0,0.0,0.0,0.0,0.0,0.0,0.0
2306.400034368,imu,0.0,0.0,0.0,0.0,0.0,-0.0,-0.7152955697995165,-0.698822043030402,0.02827328070998192,4.371004581451416,0.34645676612854004
2306.400034368,pos,-821.8408187020392,-5033.491268228586,706.7952605906089,0.0,0.0,0.0,0.0,0.0,0.0,0.0,0.0
2306.450034368,speed,0.0,0.0,0.0,12.31472839701876,0.0,0.0,0.0,0.0,0.0,0.0,0.0
2306.450034368,imu,0.0,0.0,0.0,0.0,0.0,-0.0,-0.715515962097562,-0.6985963841758703,0.003681597765535116,2.7979230880737305,-0.019054025411605835
2306.450034368,pos,-821.0488014900917,-5032.888450294368,706.7907442571241,0.0,0.0,0.0,0.0,0.0,0.0,0.0,0.0
2306.500034369,speed,0.0,0.0,0.0,12.352513332549387,0.0,0.0,0.0,0.0,0.0,0.0,0.0
2306.500034369,pos,-822.5990730820656,-5032.23303603488,706.7861351320303,0.0,0.0,0.0,0.0,0.0,0.0,0.0,0.0
2306.500034369,imu,0.0,0.0,0.0,0.0,0.0,-0.0,-0.7150532727460307,-0.6990699658368901,-0.043658170849084854,1.2110636234283447,-0.7059599161148071
2306.55003437,pos,-822.541109252421,-5032.645025641829,706.7815208004449,0.0,0.0,0.0,0.0,0.0,0.0,0.0,0.0
2306.55003437,imu,0.0,0.0,0.0,0.0,0.0,-0.0,-0.7141419744453718,-0.7000008859532008,-0.05513814836740494,0.31829121708869934,-0.6052407026290894
2306.55003437,speed,0.0,0.0,0.0,12.364537146375357,0.0,0.0,0.0,0.0,0.0,0.0,0.0
2306.600034371,imu,0.0,0.0,0.0,0.0,0.0,-0.0,-0.71338736965038,-0.7007699057631629,-0.03604012355208397,0.06874629110097885,0.059758760035037994
2306.600034371,speed,0.0,0.0,0.0,12.354794881469656,0.0,0.0,0.0,0.0,0.0,0.0,0.0
2306.600034371,pos,-821.8819902561818,-5031.609519571806,706.7767659127794,0.0,0.0,0.0,0.0,0.0,0.0,0.0,0.0
2306.650034371,speed,0.0,0.0,0.0,12.272556866767552,0.0,0.0,0.0,0.0,0.0,0.0,0.0
2306.650034371,imu,0.0,0.0,0.0,0.0,0.0,-0.0,-0.7131158166982178,-0.7010462409676226,-0.006750002503395081,-1.2083145380020142,0.31627392768859863
2306.650034371,pos,-821.0532559090806,-5031.453104190475,706.7720334274767,0.0,0.0,0.0,0.0,0.0,0.0,0.0,0.0
2306.700034372,speed,0.0,0.0,0.0,12.161675907259516,0.0,0.0,0.0,0.0,0.0,0.0,0.0
2306.700034372,imu,0.0,0.0,0.0,0.0,0.0,-0.0,-0.7130703524527097,-0.7010924849497164,0.0005713459686376154,-2.054290294647217,-0.0357205830514431
2306.700034372,pos,-821.1943798454703,-5030.280957282277,706.76730363013,0.0,0.0,0.0,0.0,0.0,0.0,0.0,0.0
2306.750034373,pos,-822.4918198707833,-5029.693306547498,706.7626306167917,0.0,0.0,0.0,0.0,0.0,0.0,0.0,0.0
2306.750034373,imu,0.0,0.0,0.0,0.0,0.0,-0.0,-0.7127167322126012,-0.7014519653006834,-0.03150704875588417,-2.5181963443756104,-0.7111009359359741
2306.750034373,speed,0.0,0.0,0.0,12.040747439529198,0.0,0.0,0.0,0.0,0.0,0.0,0.0
2306.750034373,pos,-821.7127542216157,-5029.547981913405,706.7578457685636,0.0,0.0,0.0,0.0,0.0,0.0,0.0,0.0
2306.800034373,imu,0.0,0.0,0.0,0.0,0.0,-0.0,-0.7124117878760273,-0.7017616721475192,-0.008596420288085938,-1.7586939334869385,0.0074141500517725945
2306.800034373,speed,0.0,0.0,0.0,11.972092615622428,0.0,0.0,0.0,0.0,0.0,0.0,0.0
2306.850034374,pos,-821.8510620778196,-5028.421816349311,706.752778563108,0.0,0.0,0.0,0.0,0.0,0.0,0.0,0.0
2306.850034374,imu,0.0,0.0,0.0,0.0,0.0,-0.0,-0.712330636298322,-0.7018440457757176,-0.0012083216570317745,-0.9718584418296814,0.09701057523488998
2306.850034374,speed,0.0,0.0,0.0,11.939377907823618,0.0,0.0,0.0,0.0,0.0,0.0,0.0
2306.900034375,speed,0.0,0.0,0.0,11.981492592170548,0.0,0.0,0.0,0.0,0.0,0.0,0.0
2306.900034375,imu,0.0,0.0,0.0,0.0,0.0,-0.0,-0.7123587476138056,-0.7018155132925536,0.002512662671506405,0.3505414128303528,-0.007658029906451702
2306.900034375,pos,-821.4415804454912,-5028.164876127639,706.7475611696109,0.0,0.0,0.0,0.0,0.0,0.0,0.0,0.0
2306.950034376,speed,0.0,0.0,0.0,12.009707319747472,0.0,0.0,0.0,0.0,0.0,0.0,0.0
2306.950034376,pos,-821.8686432968321,-5028.630183073289,706.742338036388,0.0,0.0,0.0,0.0,0.0,0.0,0.0,0.0
2306.950034376,imu,0.0,0.0,0.0,0.0,0.0,-0.0,-0.7119513565523868,-0.7022287845874848,-0.03825639933347702,0.6638086438179016,-0.8224656581878662
2306.950034376,speed,0.0,0.0,0.0,12.088309346830961,0.0,0.0,0.0,0.0,0.0,0.0,0.0
2307.000034376,imu,0.0,0.0,0.0,0.0,0.0,-0.0,-0.7115160839106089,-0.7026698103209723,-0.01911298744380474,1.0623350143432617,-0.06171745806932449
2307.000034376,pos,-822.4953213027961,-5027.500095901397,706.736967378347,0.0,0.0,0.0,0.0,0.0,0.0,0.0,0.0
2307.000034376,speed,0.0,0.0,0.0,12.169376498984649,0.0,0.0,0.0,0.0,0.0,0.0,0.0
2307.050034377,imu,0.0,0.0,0.0,0.0,0.0,-0.0,-0.7113208845551477,-0.7028674122447861,-0.008971099741756916,1.7389496564865112,0.10378637909889221
2307.050034377,pos,-822.0622225444321,-5026.015120658494,706.7316253106371,0.0,0.0,0.0,0.0,0.0,0.0,0.0,0.0
2307.100034378,pos,-822.4141431329415,-5025.942054667494,706.7262211468674,0.0,0.0,0.0,0.0,0.0,0.0,0.0,0.0
2307.100034378,speed,0.0,0.0,0.0,12.259330915703881,0.0,0.0,0.0,0.0,0.0,0.0,0.0
2307.100034378,imu,0.0,0.0,0.0,0.0,0.0,-0.0,-0.7113349608510728,-0.7028531663662068,0.007044845260679722,1.4302217960357666,0.11203757673501968
2307.100034378,speed,0.0,0.0,0.0,12.384330973602912,0.0,0.0,0.0,0.0,0.0,0.0,0.0
2307.150034379,imu,0.0,0.0,0.0,0.0,0.0,-0.0,-0.7115160839106089,-0.7026698103209723,0.01284447405487299,2.2190358638763428,0.11688511073589325
2307.150034379,pos,-821.9079924534345,-5024.389444563426,706.7208622082512,0.0,0.0,0.0,0.0,0.0,0.0,0.0,0.0
2307.200034379,speed,0.0,0.0,0.0,12.571452902577867,0.0,0.0,0.0,0.0,0.0,0.0,0.0
2307.200034379,imu,0.0,0.0,0.0,0.0,0.0,-0.0,-0.7117221146444681,-0.7024611245656279,0.010469822213053703,3.2496087551116943,0.04347118362784386
2307.200034379,pos,-821.4800552964565,-5024.912146553439,706.7152409839596,0.0,0.0,0.0,0.0,0.0,0.0,0.0,0.0
2307.200034379,speed,0.0,0.0,0.0,12.780384279849917,0.0,0.0,0.0,0.0,0.0,0.0,0.0
2307.25003438,imu,0.0,0.0,0.0,0.0,0.0,-0.0,-0.7121729909685262,-0.7020040106259676,0.03365481272339821,3.979111909866333,0.49772408604621887
2307.25003438,pos,-820.9592896236278,-5024.045517057154,706.7094752434132,0.0,0.0,0.0,0.0,0.0,0.0,0.0,0.0
2307.300034381,speed,0.0,0.0,0.0,13.015124974822804,0.0,0.0,0.0,0.0,0.0,0.0,0.0
2307.300034381,pos,-822.9430818225022,-5023.040374840666,706.7035737096294,0.0,0.0,0.0,0.0,0.0,0.0,0.0,0.0
2307.300034381,imu,0.0,0.0,0.0,0.0,0.0,-0.0,-0.7129745668582212,-0.7011898936902412,0.05248861759901047,4.48710298538208,0.7164531350135803
2307.350034382,speed,0.0,0.0,0.0,13.26231990337837,0.0,0.0,0.0,0.0,0.0,0.0,0.0
2307.350034382,pos,-822.8860937935405,-5022.918934381361,706.6975677424614,0.0,0.0,0.0,0.0,0.0,0.0,0.0,0.0
2307.350034382,imu,0.0,0.0,0.0,0.0,0.0,-0.0,-0.7139021069848556,-0.7002455152606005,0.05183190852403641,4.799371719360352,0.508920431137085
2307.400034382,pos,-821.184518871527,-5021.59376304299,706.6921166250831,0.0,0.0,0.0,0.0,0.0,0.0,0.0,0.0
2307.400034382,speed,0.0,0.0,0.0,12.605317917932814,0.0,0.0,0.0,0.0,0.0,0.0,0.0
2307.400034382,imu,0.0,0.0,0.0,0.0,0.0,-0.0,-0.713879401200025,-0.7002686631160171,-0.030034087598323822,-4.61147928237915,-1.136252760887146
2307.450034383,speed,0.0,0.0,0.0,11.474393566565046,0.0,0.0,0.0,0.0,0.0,0.0,0.0
2307.450034383,pos,-823.1175597870829,-5021.731888960027,706.6879236254651,0.0,0.0,0.0,0.0,0.0,0.0,0.0,0.0
2307.450034383,imu,0.0,0.0,0.0,0.0,0.0,-0.0,-0.7122509813650848,-0.7019248816963776,-0.1389550268650055,-21.331499099731445,-2.4654645919799805
2307.500034384,imu,0.0,0.0,0.0,0.0,0.0,-0.0,-0.708486437845381,-0.7057244273717348,-0.2611249089241028,-24.741140365600586,-3.988177537918091
2307.500034384,pos,-821.1396183887939,-5020.230734351807,706.6846004574085,0.0,0.0,0.0,0.0,0.0,0.0,0.0,0.0
2307.500034384,speed,0.0,0.0,0.0,10.221476631055085,0.0,0.0,0.0,0.0,0.0,0.0,0.0
2307.550034385,speed,0.0,0.0,0.0,8.904273048951687,0.0,0.0,0.0,0.0,0.0,0.0,0.0
2307.550034385,pos,-822.4578091396963,-5020.438523451545,706.6819131297241,0.0,0.0,0.0,0.0,0.0,0.0,0.0,0.0
2307.550034385,imu,0.0,0.0,0.0,0.0,0.0,0.0,0.7027225422433963,0.7114640037436737,-0.36063337326049805,-26.23688316345215,-4.42932653427124
2307.600034385,speed,0.0,0.0,0.0,7.5648452448570405,0.0,0.0,0.0,0.0,0.0,0.0,0.0
2307.600034385,imu,0.0,0.0,0.0,0.0,0.0,0.0,0.6956131981241267,0.7184165077415221,-0.41437166929244995,-26.886993408203125,-4.0191450119018555
2307.600034385,pos,-822.0336273890379,-5020.39740625873,706.679749942048,0.0,0.0,0.0,0.0,0.0,0.0,0.0,0.0
2307.650034386,imu,0.0,0.0,0.0,0.0,0.0,0.0,0.6880836691476767,0.7256313556154189,-0.40860506892204285,-27.278249740600586,-3.040637493133545
2307.650034386,speed,0.0,0.0,0.0,6.207241798042792,0.0,0.0,0.0,0.0,0.0,0.0,0.0
2307.650034386,pos,-821.8090152554197,-5020.0411785947435,706.6780081562144,0.0,0.0,0.0,0.0,0.0,0.0,0.0,0.0
2307.700034387,speed,0.0,0.0,0.0,4.836752334737621,0.0,0.0,0.0,0.0,0.0,0.0,0.0
2307.700034387,imu,0.0,0.0,0.0,0.0,0.0,0.0,0.681257716715361,0.7320436622331847,-0.3409278988838196,-27.623859405517578,-1.5227822065353394
2307.700034387,pos,-821.5270100160349,-5019.677947528286,706.6766999472493,0.0,0.0,0.0,0.0,0.0,0.0,0.0,0.0
2307.700034387,pos,-821.2108564805519,-5019.398976485492,706.6756562717921,0.0,0.0,0.0,0.0,0.0,0.0,0.0,0.0
2307.700034387,imu,0.0,0.0,0.0,0.0,0.0,0.0,0.6759026034090084,0.7369909570034932,-0.2529389262199402,-27.52137565612793,0.12673117220401764
2307.750034388,speed,0.0,0.0,0.0,3.471049857759487,0.0,0.0,0.0,0.0,0.0,0.0,0.0
2307.800034388,speed,0.0,0.0,0.0,2.0914544629431715,0.0,0.0,0.0,0.0,0.0,0.0,0.0
2307.800034388,pos,-822.0821402981355,-5019.348949804425,706.6751047188068,0.0,0.0,0.0,0.0,0.0,0.0,0.0,0.0
2307.800034388,imu,0.0,0.0,0.0,0.0,0.0,0.0,0.6722872488163985,0.7402903856453074,-0.1551113873720169,-27.949819564819336,0.7169060111045837
2307.850034389,speed,0.0,0.0,0.0,0.7132359690483216,0.0,0.0,0.0,0.0,0.0,0.0,0.0
2307.850034389,imu,0.0,0.0,0.0,0.0,0.0,0.0,0.6705347406869059,0.7418781311859408,-0.052436526864767075,-27.97789192199707,0.7837334871292114
2307.850034389,pos,-822.4268940818324,-5019.518399514782,706.675235187997,0.0,0.0,0.0,0.0,0.0,0.0,0.0,0.0
2307.90003439,pos,-823.0679559029686,-5019.279052257308,706.6754156154993,0.0,0.0,0.0,0.0,0.0,0.0,0.0,0.0
2307.90003439,imu,0.0,0.0,0.0,0.0,0.0,0.0,0.6702930296048702,0.7420965263785598,0.0018594266148284078,-22.783252716064453,-0.8375909924507141
2307.90003439,speed,0.0,0.0,0.0,-0.0021174133019894637,0.0,0.0,0.0,0.0,0.0,0.0,0.0
2307.950034391,speed,0.0,0.0,0.0,-0.012196851932009742,0.0,0.0,0.0,0.0,0.0,0.0,0.0
2307.950034391,pos,-821.1302663876295,-5018.985075015387,706.674587642586,0.0,0.0,0.0,0.0,0.0,0.0,0.0,0.0
2307.950034391,imu,0.0,0.0,0.0,0.0,0.0,0.0,0.6703261921773312,0.7420665711922614,0.0013050511479377747,-2.2454628944396973,-0.5992860198020935
2308.000034391,speed,0.0,0.0,0.0,-0.01595728802725522,0.0,0.0,0.0,0.0,0.0,0.0,0.0
2308.000034391,pos,-821.8089256260932,-5018.146673418259,706.6733466571613,0.0,0.0,0.0,0.0,0.0,0.0,0.0,0.0
2308.000034391,imu,0.0,0.0,0.0,0.0,0.0,0.0,0.6703665903213384,0.7420300766013079,0.003423126880079508,-0.16469575464725494,0.024701394140720367
2308.050034392,speed,0.0,0.0,0.0,-0.016790600589515092,0.0,0.0,0.0,0.0,0.0,0.0,0.0
2308.050034392,pos,-821.8028611795338,-5018.599636239322,706.6721742117006,0.0,0.0,0.0,0.0,0.0,0.0,0.0,0.0
2308.050034392,imu,0.0,0.0,0.0,0.0,0.0,0.0,0.6704017815835601,0.7419982825112121,0.0009426352917216718,-0.38586336374282837,0.030472569167613983
2308.100034393,speed,0.0,0.0,0.0,0.20250193356202256,0.0,0.0,0.0,0.0,0.0,0.0,0.0
2308.100034393,pos,-822.8963133920755,-5018.94570566874,706.6708034988071,0.0,0.0,0.0,0.0,0.0,0.0,0.0,0.0
2308.100034393,imu,0.0,0.0,0.0,0.0,0.0,0.0,0.6699486524727811,0.7424074373616585,-0.040387678891420364,1.8223940134048462,-0.7108258008956909
2308.150034394,imu,0.0,0.0,0.0,0.0,0.0,0.0,0.6695465926618219,0.742770058803493,-0.008198353461921215,5.107316970825195,-0.13668383657932281
2308.150034394,speed,0.0,0.0,0.0,0.46736243528358273,0.0,0.0,0.0,0.0,0.0,0.0,0.0
2308.150034394,pos,-823.3108976802242,-5019.1410944310755,706.6694290249452,0.0,0.0,0.0,0.0,0.0,0.0,0.0,0.0
2308.200034394,speed,0.0,0.0,0.0,0.6316266300116827,0.0,0.0,0.0,0.0,0.0,0.0,0.0
2308.200034394,imu,0.0,0.0,0.0,0.0,0.0,0.0,0.6697635797981852,0.7425744051446427,0.03514457121491432,3.960571765899658,0.8739216923713684
2308.200034394,pos,-821.9041473495247,-5017.2705980625915,706.6680265612829,0.0,0.0,0.0,0.0,0.0,0.0,0.0,0.0
2308.250034395,speed,0.0,0.0,0.0,0.8410896062862707,0.0,0.0,0.0,0.0,0.0,0.0,0.0
2308.250034395,imu,0.0,0.0,0.0,0.0,0.0,0.0,0.670884286762024,0.741562049848703,0.07902025431394577,3.055241107940674,1.075135588645935
2308.250034395,pos,-822.1945283696351,-5020.051991324167,706.6668405912379,0.0,0.0,0.0,0.0,0.0,0.0,0.0,0.0
2308.300034396,speed,0.0,0.0,0.0,1.0804980218688993,0.0,0.0,0.0,0.0,0.0,0.0,0.0
2308.300034396,pos,-822.436675915103,-5019.619999577847,706.6656160839109,0.0,0.0,0.0,0.0,0.0,0.0,0.0,0.0
2308.300034396,imu,0.0,0.0,0.0,0.0,0.0,0.0,0.6718917759278166,0.7406493377034538,0.043516796082258224,4.191379547119141,0.014319919049739838
2308.350034397,speed,0.0,0.0,0.0,0.33770603782539055,0.0,0.0,0.0,0.0,0.0,0.0,0.0
2308.350034397,imu,0.0,0.0,0.0,0.0,0.0,0.0,0.6720247360337244,0.7405286990784374,0.00686765369027853,-4.8587141036987305,-0.6408498287200928
2308.350034397,pos,-821.7049618923415,-5017.373958422952,706.6650371153792,0.0,0.0,0.0,0.0,0.0,0.0,0.0,0.0
2308.400034397,speed,0.0,0.0,0.0,0.0026271434405745315,0.0,0.0,0.0,0.0,0.0,0.0,0.0
2308.400034397,pos,-820.8391382905506,-5018.116191617449,706.6653828431263,0.0,0.0,0.0,0.0,0.0,0.0,0.0,0.0
2308.400034397,imu,0.0,0.0,0.0,0.0,0.0,0.0,0.6720397927941478,0.7405150348920667,4.7301684389822185e-05,-15.31896686553955,-0.7192761898040771
2308.450034398,speed,0.0,0.0,0.0,-0.001567991926307534,0.0,0.0,0.0,0.0,0.0,0.0,0.0
2308.450034398,pos,-821.7725588018551,-5018.019122422521,706.6653791726098,0.0,0.0,0.0,0.0,0.0,0.0,0.0,0.0
2308.450034398,imu,0.0,0.0,0.0,0.0,0.0,0.0,0.6720393348608624,0.7405154504801164,0.0025063124485313892,-0.5835345387458801,-0.021340301260352135
2308.500034399,imu,0.0,0.0,0.0,0.0,0.0,0.0,0.6721577075777033,0.7404080065368598,0.022139105945825577,1.9141919612884521,0.11994406580924988
2308.500034399,speed,0.0,0.0,0.0,0.17038624045049752,0.0,0.0,0.0,0.0,0.0,0.0,0.0
2308.500034399,pos,-821.1304591069706,-5019.199895485417,706.6651035284272,0.0,0.0,0.0,0.0,0.0,0.0,0.0,0.0
2308.5500344,speed,0.0,0.0,0.0,-0.0027089422870462975,0.0,0.0,0.0,0.0,0.0,0.0,0.0
2308.5500344,imu,0.0,0.0,0.0,0.0,0.0,0.0,0.672177398377975,0.7403901303433327,0.0011321189813315868,-1.5246927738189697,-0.1381184309720993
2308.5500344,pos,-822.1244285625706,-5018.348541829534,706.664937288655,0.0,0.0,0.0,0.0,0.0,0.0,0.0,0.0
2308.6000344,pos,-822.1204169444175,-5018.821066668278,706.6647007011115,0.0,0.0,0.0,0.0,0.0,0.0,0.0,0.0
2308.6000344,speed,0.0,0.0,0.0,0.05406326523374255,0.0,0.0,0.0,0.0,0.0,0.0,0.0
2308.6000344,imu,0.0,0.0,0.0,0.0,0.0,0.0,0.6722248319745976,0.7403470640697672,0.014296713285148144,-0.2556491792201996,0.056364014744758606
2308.650034401,speed,0.0,0.0,0.0,0.17765745986403292,0.0,0.0,0.0,0.0,0.0,0.0,0.0
2308.650034401,imu,0.0,0.0,0.0,0.0,0.0,0.0,0.672373017293254,0.7402124868008952,0.011159487068653107,1.3813890218734741,0.22968702018260956
2308.650034401,pos,-821.8924997208563,-5018.4809273731535,706.6644669674852,0.0,0.0,0.0,0.0,0.0,0.0,0.0,0.0
2308.700034402,speed,0.0,0.0,0.0,0.24629884258403556,0.0,0.0,0.0,0.0,0.0,0.0,0.0
2308.700034402,imu,0.0,0.0,0.0,0.0,0.0,0.0,0.672806478441567,0.739818520021672,0.007989740930497646,2.260072708129883,0.33084163069725037
2308.700034402,pos,-822.4369119329276,-5018.156300027463,706.6640692744813,0.0,0.0,0.0,0.0,0.0,0.0,0.0,0.0
2308.750034403,speed,0.0,0.0,0.0,0.41541003507233515,0.0,0.0,0.0,0.0,0.0,0.0,0.0
2308.750034403,imu,0.0,0.0,0.0,0.0,0.0,0.0,0.6733832752734923,0.7392935577846895,0.03871063143014908,3.033674478530884,0.3551287353038788
2308.750034403,pos,-821.9938540502218,-5018.404867481667,706.6635408771131,0.0,0.0,0.0,0.0,0.0,0.0,0.0,0.0
2308.800034403,speed,0.0,0.0,0.0,0.5993386576460407,0.0,0.0,0.0,0.0,0.0,0.0,0.0
2308.800034403,imu,0.0,0.0,0.0,0.0,0.0,0.0,0.6743257885503561,0.7384339719270373,0.04385761916637421,3.2445425987243652,0.3245464265346527
2308.800034403,pos,-822.1669234469936,-5019.194962559226,706.6630812754915,0.0,0.0,0.0,0.0,0.0,0.0,0.0,0.0
2308.850034404,speed,0.0,0.0,0.0,0.7915624009242193,0.0,0.0,0.0,0.0,0.0,0.0,0.0
2308.850034404,imu,0.0,0.0,0.0,0.0,0.0,0.0,0.6754798080061091,0.7373784842101307,0.07530275732278824,3.3740525245666504,0.49350517988204956
2308.850034404,pos,-821.9038478691598,-5017.295915543077,706.6624040560746,0.0,0.0,0.0,0.0,0.0,0.0,0.0,0.0
2308.900034405,speed,0.0,0.0,0.0,0.008663523748338616,0.0,0.0,0.0,0.0,0.0,0.0,0.0
2308.900034405,pos,-822.1518883959369,-5018.773493802029,706.6626620176728,0.0,0.0,0.0,0.0,0.0,0.0,0.0,0.0
2308.900034405,imu,0.0,0.0,0.0,0.0,0.0,0.0,0.6758344735537244,0.7370534338542628,-0.0009689481812529266,-9.336700439453125,-1.3153470754623413
2308.950034406,speed,0.0,0.0,0.0,0.003287949780011316,0.0,0.0,0.0,0.0,0.0,0.0,0.0
2308.950034406,imu,0.0,0.0,0.0,0.0,0.0,0.0,0.6758321863507109,0.7370555310778273,0.0014199491124600172,-5.4540228843688965,-0.49287042021751404
2308.950034406,pos,-822.0641429718161,-5018.866141881095,706.6629578300413,0.0,0.0,0.0,0.0,0.0,0.0,0.0,0.0
2309.000034406,speed,0.0,0.0,0.0,0.0008161086744967084,0.0,0.0,0.0,0.0,0.0,0.0,0.0
2309.000034406,imu,0.0,0.0,0.0,0.0,0.0,0.0,0.6758316783875739,0.7370559968468033,0.0006925545749254525,0.03519994392991066,0.0072152456268668175
2309.000034406,pos,-821.7844717499574,-5018.389961499759,706.6630782616812,0.0,0.0,0.0,0.0,0.0,0.0,0.0,0.0
2309.050034407,speed,0.0,0.0,0.0,-0.00033912716670093696,0.0,0.0,0.0,0.0,0.0,0.0,0.0
2309.050034407,imu,0.0,0.0,0.0,0.0,0.0,0.0,0.6758319337420559,0.737055762703524,0.0004998057265765965,-0.04385288432240486,0.002059794496744871
2309.050034407,pos,-822.3401182003959,-5018.602162605594,706.6630921706828,0.0,0.0,0.0,0.0,0.0,0.0,0.0,0.0
2309.100034408,speed,0.0,0.0,0.0,-0.0008584074368869186,0.0,0.0,0.0,0.0,0.0,0.0,0.0
2309.100034408,pos,-821.9886787392061,-5018.379426804638,706.663027125182,0.0,0.0,0.0,0.0,0.0,0.0,0.0,0.0
2309.100034408,imu,0.0,0.0,0.0,0.0,0.0,0.0,0.6758321863507109,0.7370555310778273,0.0006402440485544503,-0.07803742587566376,-0.005886106286197901
2309.150034409,speed,0.0,0.0,0.0,-0.000924640272102543,0.0,0.0,0.0,0.0,0.0,0.0,0.0
2309.150034409,imu,0.0,0.0,0.0,0.0,0.0,0.0,0.6758321863507109,0.7370555310778273,0.0014254837296903133,-0.09780605882406235,-0.00764989061281085
2309.150034409,pos,-822.13207563446,-5017.839841663522,706.6629737092144,0.0,0.0,0.0,0.0,0.0,0.0,0.0,0.0
2309.200034409,speed,0.0,0.0,0.0,-0.0009112347321448413,0.0,0.0,0.0,0.0,0.0,0.0,0.0
2309.200034409,pos,-821.4338142479497,-5018.961586733403,706.6629283844663,0.0,0.0,0.0,0.0,0.0,0.0,0.0,0.0
2309.200034409,imu,0.0,0.0,0.0,0.0,0.0,0.0,0.6758329496676863,0.7370548311648698,0.001429992145858705,-0.09928695112466812,-0.011207631789147854
2309.25003441,speed,0.0,0.0,0.0,-0.000859685232704834,0.0,0.0,0.0,0.0,0.0,0.0,0.0
2309.25003441,imu,0.0,0.0,0.0,0.0,0.0,0.0,0.6758332022760221,0.7370545995388249,-0.00020349030091892928,-0.10415364801883698,-0.0164765827357769
2309.25003441,pos,-822.1082631119904,-5018.532270760139,706.6628371849743,0.0,0.0,0.0,0.0,0.0,0.0,0.0,0.0
2309.300034411,speed,0.0,0.0,0.0,-0.0006832351706992574,0.0,0.0,0.0,0.0,0.0,0.0,0.0
2309.300034411,imu,0.0,0.0,0.0,0.0,0.0,0.0,0.6758332022760221,0.7370545995388249,0.00024566223146393895,-0.1026049479842186,-0.015938064083456993
2309.300034411,pos,-822.1173808171578,-5018.800555754082,706.6628095411054,0.0,0.0,0.0,0.0,0.0,0.0,0.0,0.0
2309.300034411,speed,0.0,0.0,0.0,-0.00030637865441226884,0.0,0.0,0.0,0.0,0.0,0.0,0.0
2309.350034411,imu,0.0,0.0,0.0,0.0,0.0,0.0,0.6758337102381962,0.7370541337687986,-0.0004767343052662909,-0.12288866192102432,-0.007281951140612364
2309.350034411,pos,-822.4730800489389,-5017.549669983274,706.66281616995,0.0,0.0,0.0,0.0,0.0,0.0,0.0,0.0
2309.400034412,speed,0.0,0.0,0.0,-0.00035342783227814713,0.0,0.0,0.0,0.0,0.0,0.0,0.0
2309.400034412,pos,-822.1408560726437,-5018.409860105136,706.6627498076356,0.0,0.0,0.0,0.0,0.0,0.0,0.0,0.0
2309.400034412,imu,0.0,0.0,0.0,0.0,0.0,0.0,0.6758337102381962,0.7370541337687986,0.0014426916604861617,-0.08806116133928299,-0.021020008251070976
2309.450034413,speed,0.0,0.0,0.0,-0.0003630829937151378,0.0,0.0,0.0,0.0,0.0,0.0,0.0
2309.450034413,imu,0.0,0.0,0.0,0.0,0.0,0.0,0.6758334576300199,0.7370543653950176,0.0008561231079511344,-0.09896452724933624,-0.007119742222130299
2309.450034413,pos,-821.8191005838654,-5018.625137438599,706.6627579669348,0.0,0.0,0.0,0.0,0.0,0.0,0.0,0.0
2309.500034414,speed,0.0,0.0,0.0,-0.0003754228143691093,0.0,0.0,0.0,0.0,0.0,0.0,0.0
2309.500034414,imu,0.0,0.0,0.0,0.0,0.0,0.0,0.6758339655920327,0.7370538996248153,0.0006563825882039964,-0.0954219400882721,-0.0030850882176309824
2309.500034414,pos,-822.1719975454218,-5017.646779675248,706.6627181141001,0.0,0.0,0.0,0.0,0.0,0.0,0.0,0.0
2309.550034414,speed,0.0,0.0,0.0,-0.0003022023972001527,0.0,0.0,0.0,0.0,0.0,0.0,0.0
2309.550034414,imu,0.0,0.0,0.0,0.0,0.0,0.0,0.6758342182000492,0.7370536679984221,2.151713488274254e-05,-0.09820277243852615,-0.019530994817614555
2309.550034414,pos,-821.4038349300997,-5018.409278341438,706.6627215849403,0.0,0.0,0.0,0.0,0.0,0.0,0.0,0.0
2309.600034415,pos,-822.1818725909916,-5019.238158734102,706.6626860974843,0.0,0.0,0.0,0.0,0.0,0.0,0.0,0.0
2309.600034415,speed,0.0,0.0,0.0,-0.0002136771494718437,0.0,0.0,0.0,0.0,0.0,0.0,0.0
2309.600034415,imu,0.0,0.0,0.0,0.0,0.0,0.0,0.6758342182000492,0.7370536679984221,0.00011445468408055604,-0.09398438781499863,-0.008773294277489185
2309.650034416,speed,0.0,0.0,0.0,-0.00017834685874438882,0.0,0.0,0.0,0.0,0.0,0.0,0.0
2309.650034416,pos,-820.7321579945764,-5018.370961038036,706.6626816975581,0.0,0.0,0.0,0.0,0.0,0.0,0.0,0.0
2309.650034416,imu,0.0,0.0,0.0,0.0,0.0,0.0,0.6758339655920327,0.7370538996248153,-0.0002184259647037834,-0.0957307517528534,-0.005064527969807386
2309.700034417,speed,0.0,0.0,0.0,-0.0001335358131590278,0.0,0.0,0.0,0.0,0.0,0.0,0.0
2309.700034417,pos,-822.0825173007288,-5019.947729523785,706.6626916806474,0.0,0.0,0.0,0.0,0.0,0.0,0.0,0.0
2309.700034417,imu,0.0,0.0,0.0,0.0,0.0,0.0,0.6758339655920327,0.7370538996248153,-0.0004699679557234049,-0.092609703540802,-0.01589277759194374
2309.750034417,speed,0.0,0.0,0.0,-3.471872547348724e-05,0.0,0.0,0.0,0.0,0.0,0.0,0.0
2309.750034417,pos,-821.6998240992801,-5019.653651859722,706.6626958613629,0.0,0.0,0.0,0.0,0.0,0.0,0.0,0.0
2309.750034417,imu,0.0,0.0,0.0,0.0,0.0,0.0,0.6758342182000492,0.7370536679984221,-0.0012320948299020529,-0.0931769609451294,-0.0070411441847682
2309.800034418,speed,0.0,0.0,0.0,-6.425446058977976e-05,0.0,0.0,0.0,0.0,0.0,0.0,0.0
2309.800034418,pos,-822.0312619401261,-5017.965324798818,706.6626650985668,0.0,0.0,0.0,0.0,0.0,0.0,0.0,0.0
2309.800034418,imu,0.0,0.0,0.0,0.0,0.0,0.0,0.6758339655920327,0.7370538996248153,0.0023705658968538046,-0.09376634657382965,-0.00010635273065418005
2309.850034419,speed,0.0,0.0,0.0,-5.829932412050617e-05,0.0,0.0,0.0,0.0,0.0,0.0,0.0
2309.850034419,imu,0.0,0.0,0.0,0.0,0.0,0.0,0.6758342182000492,0.7370536679984221,-0.0015528385993093252,-0.09123591333627701,-0.01982215978205204
2309.850034419,pos,-821.694188547479,-5018.091020018962,706.6626592258366,0.0,0.0,0.0,0.0,0.0,0.0,0.0,0.0
2309.90003442,speed,0.0,0.0,0.0,-9.498640365758753e-05,0.0,0.0,0.0,0.0,0.0,0.0,0.0
2309.90003442,imu,0.0,0.0,0.0,0.0,0.0,0.0,0.6758339655920327,0.7370538996248153,0.0003993638965766877,-0.09365888684988022,-0.007212653290480375
2309.90003442,pos,-822.956644428547,-5018.2326659308255,706.6626693836834,0.0,0.0,0.0,0.0,0.0,0.0,0.0,0.0
2309.95003442,imu,0.0,0.0,0.0,0.0,0.0,0.0,0.6758342182000492,0.7370536679984221,2.3560305635328405e-05,-0.09175176173448563,-0.00976817961782217
2309.95003442,pos,-822.0617281606658,-5018.770101398465,706.662667783844,0.0,0.0,0.0,0.0,0.0,0.0,0.0,0.0
2309.95003442,speed,0.0,0.0,0.0,-6.204535042553323e-05,0.0,0.0,0.0,0.0,0.0,0.0,0.0
2310.000034421,speed,0.0,0.0,0.0,-4.187170170795678e-05,0.0,0.0,0.0,0.0,0.0,0.0,0.0
2310.000034421,pos,-821.1746060414279,-5018.121859828392,706.662658879852,0.0,0.0,0.0,0.0,0.0,0.0,0.0,0.0
2310.000034421,imu,0.0,0.0,0.0,0.0,0.0,0.0,0.6758342182000492,0.7370536679984221,-0.0007080089999362826,-0.09024439007043839,-0.008107894100248814
2310.050034422,speed,0.0,0.0,0.0,-5.664572425060599e-05,0.0,0.0,0.0,0.0,0.0,0.0,0.0
2310.050034422,pos,-822.8080192426689,-5017.88333710811,706.6626567137607,0.0,0.0,0.0,0.0,0.0,0.0,0.0,0.0
2310.050034422,imu,0.0,0.0,0.0,0.0,0.0,0.0,0.6758342182000492,0.7370536679984221,0.0002663935592863709,-0.09338585287332535,-0.00838000699877739
2310.100034423,speed,0.0,0.0,0.0,-4.366996019334503e-05,0.0,0.0,0.0,0.0,0.0,0.0,0.0
2310.100034423,imu,0.0,0.0,0.0,0.0,0.0,0.0,0.6758344735537244,0.7370534338542628,0.0007158847292885184,-0.090481236577034,-0.009229474700987339
2310.100034423,pos,-821.9330952395763,-5018.001665071377,706.6626533401227,0.0,0.0,0.0,0.0,0.0,0.0,0.0,0.0
2310.150034423,speed,0.0,0.0,0.0,0.0,0.0,0.0,0.0,0.0,0.0,0.0,0.0
2310.150034423,pos,-822.9719967375898,-5019.141308349664,706.662652223622,0.0,0.0,0.0,0.0,0.0,0.0,0.0,0.0
2310.150034423,imu,0.0,0.0,0.0,0.0,0.0,0.0,0.6758344735537244,0.7370534338542628,-0.0005265158833935857,-0.09373505413532257,-0.01116275042295456
2310.200034424,speed,0.0,0.0,0.0,2.2875152310615475e-05,0.0,0.0,0.0,0.0,0.0,0.0,0.0
2310.200034424,pos,-821.8113516040188,-5019.474261073699,706.6626573188169,0.0,0.0,0.0,0.0,0.0,0.0,0.0,0.0
2310.200034424,imu,0.0,0.0,0.0,0.0,0.0,0.0,0.6758339655920327,0.7370538996248153,0.0005719903274439275,-0.08980558812618256,-0.007041083183139563
2310.250034425,speed,0.0,0.0,0.0,6.544418554481635e-06,0.0,0.0,0.0,0.0,0.0,0.0,0.0
2310.250034425,imu,0.0,0.0,0.0,0.0,0.0,0.0,0.6758339655920327,0.7370538996248153,-0.0007995588821358979,-0.08995528519153595,-0.009784149937331676
2310.250034425,pos,-822.0454528784036,-5018.369205680251,706.6626551746554,0.0,0.0,0.0,0.0,0.0,0.0,0.0,0.0
2310.300034426,pos,-822.0724407670742,-5018.003793888281,706.6626562195456,0.0,0.0,0.0,0.0,0.0,0.0,0.0,0.0
2310.300034426,imu,0.0,0.0,0.0,0.0,0.0,0.0,0.6758342182000492,0.7370536679984221,0.0023331644479185343,-0.09081646054983139,-0.00786194484680891
2310.300034426,speed,0.0,0.0,0.0,1.4096198270849156e-05,0.0,0.0,0.0,0.0,0.0,0.0,0.0
2310.350034426,pos,-821.7504679786017,-5019.031710043926,706.6626628094332,0.0,0.0,0.0,0.0,0.0,0.0,0.0,0.0
2310.350034426,imu,0.0,0.0,0.0,0.0,0.0,0.0,0.6758342182000492,0.7370536679984221,-0.0007439388427883387,-0.090395487844944,-0.008855210617184639
2310.350034426,speed,0.0,0.0,0.0,3.668534824278586e-06,0.0,0.0,0.0,0.0,0.0,0.0,0.0
2310.400034427,speed,0.0,0.0,0.0,1.7800207484559853e-05,0.0,0.0,0.0,0.0,0.0,0.0,0.0
2310.400034427,imu,0.0,0.0,0.0,0.0,0.0,0.0,0.6758342182000492,0.7370536679984221,0.0009041488519869745,-0.09314193576574326,-0.01073477789759636
2310.400034427,pos,-822.6253307540907,-5017.768979653414,706.6626624648131,0.0,0.0,0.0,0.0,0.0,0.0,0.0,0.0
2310.450034428,speed,0.0,0.0,0.0,-3.6573006728422646e-05,0.0,0.0,0.0,0.0,0.0,0.0,0.0
2310.450034428,imu,0.0,0.0,0.0,0.0,0.0,0.0,0.6758342182000492,0.7370536679984221,0.0001143080517067574,-0.09009505063295364,4.2480998672544956e-05
2310.450034428,pos,-822.3950936021109,-5018.91523685763,706.6626565433639,0.0,0.0,0.0,0.0,0.0,0.0,0.0,0.0
2310.450034428,imu,0.0,0.0,0.0,0.0,0.0,0.0,0.6758344735537244,0.7370534338542628,0.0008470172178931534,-0.0892234593629837,-0.01980512961745262
2310.450034428,pos,-822.1682385854999,-5018.604032709624,706.6626610351534,0.0,0.0,0.0,0.0,0.0,0.0,0.0,0.0
2310.500034429,speed,0.0,0.0,0.0,-2.072302851578899e-05,0.0,0.0,0.0,0.0,0.0,0.0,0.0
2310.550034429,speed,0.0,0.0,0.0,-3.41874006387246e-06,0.0,0.0,0.0,0.0,0.0,0.0,0.0
2310.550034429,imu,0.0,0.0,0.0,0.0,0.0,0.0,0.6758344735537244,0.7370534338542628,-0.0004899748018942773,-0.09132654964923859,-0.00927286222577095
2310.550034429,pos,-821.1910609535574,-5018.604435789278,706.6626523153159,0.0,0.0,0.0,0.0,0.0,0.0,0.0,0.0
2310.60003443,speed,0.0,0.0,0.0,1.5171029722040939e-05,0.0,0.0,0.0,0.0,0.0,0.0,0.0
2310.60003443,imu,0.0,0.0,0.0,0.0,0.0,0.0,0.6758344735537244,0.7370534338542628,-0.0014640906592831016,-0.0917574092745781,-0.009409035556018353
2310.60003443,pos,-823.1211462686664,-5019.114600298202,706.6626581746823,0.0,0.0,0.0,0.0,0.0,0.0,0.0,0.0
2310.650034431,imu,0.0,0.0,0.0,0.0,0.0,0.0,0.6758344735537244,0.7370534338542628,-0.0017013292526826262,-0.0901261568069458,-0.01889505237340927
2310.650034431,speed,0.0,0.0,0.0,3.577731851823529e-05,0.0,0.0,0.0,0.0,0.0,0.0,0.0
2310.650034431,pos,-821.5745069330787,-5017.478112504819,706.662650244758,0.0,0.0,0.0,0.0,0.0,0.0,0.0,0.0
2310.700034432,speed,0.0,0.0,0.0,1.0441645790811947e-05,0.0,0.0,0.0,0.0,0.0,0.0,0.0
2310.700034432,imu,0.0,0.0,0.0,0.0,0.0,0.0,0.6758344735537244,0.7370534338542628,0.0023143747821450233,-0.09326228499412537,0.0006319269305095077
2310.700034432,pos,-821.8064047604133,-5019.383231265965,706.6626660819111,0.0,0.0,0.0,0.0,0.0,0.0,0.0,0.0
2310.750034432,imu,0.0,0.0,0.0,0.0,0.0,0.0,0.6758344735537244,0.7370534338542628,0.00014097090752329677,-0.09055531024932861,-0.007023883052170277
2310.750034432,pos,-821.446508134687,-5018.91787680799,706.6625993732628,0.0,0.0,0.0,0.0,0.0,0.0,0.0,0.0
2310.750034432,speed,0.0,0.0,0.0,2.9159960072401435e-05,0.0,0.0,0.0,0.0,0.0,0.0,0.0
2310.800034433,speed,0.0,0.0,0.0,6.86481234533017e-06,0.0,0.0,0.0,0.0,0.0,0.0,0.0
2310.800034433,pos,-820.776273629371,-5018.58865429404,706.6625939296059,0.0,0.0,0.0,0.0,0.0,0.0,0.0,0.0
2310.800034433,imu,0.0,0.0,0.0,0.0,0.0,0.0,0.6758344735537244,0.7370534338542628,-0.0006302089896053076,-0.09173794090747833,-0.007207359187304974
2310.800034433,pos,-822.0956547801446,-5019.07378493842,706.6625923173156,0.0,0.0,0.0,0.0,0.0,0.0,0.0,0.0
2310.800034433,imu,0.0,0.0,0.0,0.0,0.0,0.0,0.6758344735537244,0.7370534338542628,0.0003981085028499365,-0.09036377817392349,-0.00795559398829937
2310.850034434,speed,0.0,0.0,0.0,-1.6191190430694378e-05,0.0,0.0,0.0,0.0,0.0,0.0,0.0
2310.900034435,pos,-822.7951238335941,-5018.147456773126,706.662658286394,0.0,0.0,0.0,0.0,0.0,0.0,0.0,0.0
2310.900034435,speed,0.0,0.0,0.0,4.991596292083709e-05,0.0,0.0,0.0,0.0,0.0,0.0,0.0
2310.900034435,imu,0.0,0.0,0.0,0.0,0.0,0.0,0.6758344735537244,0.7370534338542628,0.0005977565888315439,-0.0889769196510315,-0.007378303445875645
2310.950034435,speed,0.0,0.0,0.0,4.40676361661656e-06,0.0,0.0,0.0,0.0,0.0,0.0,0.0
2310.950034435,pos,-822.3102042000957,-5019.161544851213,706.6625955615541,0.0,0.0,0.0,0.0,0.0,0.0,0.0,0.0
2310.950034435,imu,0.0,0.0,0.0,0.0,0.0,0.0,0.6758344735537244,0.7370534338542628,1.1763606380554847e-05,-0.08869082480669022,-0.008570672012865543
2311.000034436,pos,-822.6596816417566,-5017.522794141075,706.6625976102865,0.0,0.0,0.0,0.0,0.0,0.0,0.0,0.0
2311.000034436,imu,0.0,0.0,0.0,0.0,0.0,0.0,0.6758342182000492,0.7370536679984221,0.000536298262886703,-0.09016495943069458,-0.009113576263189316
2311.000034436,speed,0.0,0.0,0.0,1.876361371974893e-05,0.0,0.0,0.0,0.0,0.0,0.0,0.0
2311.050034437,speed,0.0,0.0,0.0,0.03636883592906613,0.0,0.0,0.0,0.0,0.0,0.0,0.0
2311.050034437,imu,0.0,0.0,0.0,0.0,0.0,0.0,0.6759800531252182,0.7369199195142082,0.011018957011401653,0.8987700343132019,0.07843807339668274
2311.050034437,pos,-821.1325731270604,-5018.0064057500185,706.6625748191418,0.0,0.0,0.0,0.0,0.0,0.0,0.0,0.0
2311.100034438,pos,-822.1316798566904,-5019.068830438907,706.6625669918953,0.0,0.0,0.0,0.0,0.0,0.0,0.0,0.0
2311.100034438,imu,0.0,0.0,0.0,0.0,0.0,0.0,0.6760791666681858,0.7368289899272771,-0.018606852740049362,0.4970608055591583,0.08762438595294952
2311.100034438,speed,0.0,0.0,0.0,0.07384736536146469,0.0,0.0,0.0,0.0,0.0,0.0,0.0
2311.150034438,speed,0.0,0.0,0.0,0.07424543893990448,0.0,0.0,0.0,0.0,0.0,0.0,0.0
2311.150034438,pos,-822.0242660004049,-5018.749320838659,706.6625068317862,0.0,0.0,0.0,0.0,0.0,0.0,0.0,0.0
2311.150034438,imu,0.0,0.0,0.0,0.0,0.0,0.0,0.6762507650843976,0.7366715025863066,0.029112981632351875,-0.16110922396183014,-0.064226433634758
2311.200034439,speed,0.0,0.0,0.0,0.2567815421780361,0.0,0.0,0.0,0.0,0.0,0.0,0.0
2311.200034439,imu,0.0,0.0,0.0,0.0,0.0,0.0,0.6763963899315049,0.7365377951521752,-0.004318524617701769,1.8608828783035278,0.0669025406241417
2311.200034439,pos,-821.4853094214576,-5018.1448090687845,706.6622960360642,0.0,0.0,0.0,0.0,0.0,0.0,0.0,0.0
2311.25003444,speed,0.0,0.0,0.0,0.4675276377951074,0.0,0.0,0.0,0.0,0.0,0.0,0.0
2311.25003444,pos,-821.3273626050319,-5018.900586300079,706.6618949354947,0.0,0.0,0.0,0.0,0.0,0.0,0.0,0.0
2311.25003444,imu,0.0,0.0,0.0,0.0,0.0,0.0,0.676844801749886,0.7361257462853459,0.039662789553403854,4.108386039733887,0.4682042598724365
2311.300034441,speed,0.0,0.0,0.0,0.6645603793323346,0.0,0.0,0.0,0.0,0.0,0.0,0.0
2311.300034441,pos,-821.1780803416049,-5017.67781152009,706.6614457785554,0.0,0.0,0.0,0.0,0.0,0.0,0.0,0.0
2311.300034441,imu,0.0,0.0,0.0,0.0,0.0,0.0,0.6775872507685686,0.7354423958379697,0.03428886458277702,4.087531089782715,0.5344977378845215
2311.350034441,speed,0.0,0.0,0.0,0.8333768891835144,0.0,0.0,0.0,0.0,0.0,0.0,0.0
2311.350034441,pos,-822.3040780468074,-5018.248398833614,706.6608537219558,0.0,0.0,0.0,0.0,0.0,0.0,0.0,0.0
2311.350034441,imu,0.0,0.0,0.0,0.0,0.0,0.0,0.678634284607215,0.7344763493507831,0.06158829107880592,3.8399791717529297,0.30417731404304504
2311.400034442,speed,0.0,0.0,0.0,1.0493019618871209,0.0,0.0,0.0,0.0,0.0,0.0,0.0
2311.400034442,pos,-821.6618773323383,-5018.563250597662,706.6603119292399,0.0,0.0,0.0,0.0,0.0,0.0,0.0,0.0
2311.400034442,imu,0.0,0.0,0.0,0.0,0.0,0.0,0.6801760982637253,0.7330487537338394,0.0983937606215477,3.317469835281372,0.856768786907196
2311.450034443,speed,0.0,0.0,0.0,1.2117107429508294,0.0,0.0,0.0,0.0,0.0,0.0,0.0
2311.450034443,imu,0.0,0.0,0.0,0.0,0.0,0.0,0.6822165627328227,0.7311501634637119,0.11644835025072098,3.8502657413482666,0.8407667279243469
2311.450034443,pos,-822.4127985917272,-5018.37365155623,706.6596740933383,0.0,0.0,0.0,0.0,0.0,0.0,0.0,0.0
2311.500034444,speed,0.0,0.0,0.0,1.4634033931823023,0.0,0.0,0.0,0.0,0.0,0.0,0.0
2311.500034444,pos,-821.982291634948,-5018.633960840838,706.6589379564136,0.0,0.0,0.0,0.0,0.0,0.0,0.0,0.0
2311.500034444,imu,0.0,0.0,0.0,0.0,0.0,0.0,0.6849712962025878,0.7285700538579298,0.1669026017189026,4.3303022384643555,1.094313383102417
2311.550034444,speed,0.0,0.0,0.0,1.7033742888131074,0.0,0.0,0.0,0.0,0.0,0.0,0.0
2311.550034444,imu,0.0,0.0,0.0,0.0,0.0,0.0,0.6878536041383284,0.7258494466994597,0.160733163356781,4.633631706237793,0.5344088673591614
2311.550034444,pos,-822.7305032654201,-5017.659164803702,706.6580458796325,0.0,0.0,0.0,0.0,0.0,0.0,0.0,0.0
2311.550034444,imu,0.0,0.0,0.0,0.0,0.0,0.0,0.6910624283175776,0.7227950748087683,0.19677826762199402,4.654969215393066,0.5885968804359436
2311.550034444,pos,-820.5443405991181,-5017.605183769317,706.657099107224,0.0,0.0,0.0,0.0,0.0,0.0,0.0,0.0
2311.600034445,speed,0.0,0.0,0.0,1.9223514316411976,0.0,0.0,0.0,0.0,0.0,0.0,0.0
2311.650034446,speed,0.0,0.0,0.0,2.2035392123232556,0.0,0.0,0.0,0.0,0.0,0.0,0.0
2311.650034446,imu,0.0,0.0,0.0,0.0,0.0,0.0,0.6939531102338317,0.720020194714559,0.1483507752418518,5.025691032409668,0.21950149536132812
2311.650034446,pos,-821.4982902129334,-5018.401174651334,706.6559744263681,0.0,0.0,0.0,0.0,0.0,0.0,0.0,0.0
2311.700034447,speed,0.0,0.0,0.0,2.5013574090663053,0.0,0.0,0.0,0.0,0.0,0.0,0.0
2311.700034447,imu,0.0,0.0,0.0,0.0,0.0,0.0,0.6963104877370235,0.7177406945878354,0.12789158523082733,5.834130764007568,-0.5906572341918945
2311.700034447,pos,-822.410820183262,-5016.890911506826,706.654786334234,0.0,0.0,0.0,0.0,0.0,0.0,0.0,0.0
2311.750034447,speed,0.0,0.0,0.0,2.8373784509745663,0.0,0.0,0.0,0.0,0.0,0.0,0.0
2311.750034447,pos,-822.2626288111467,-5017.6833745692775,706.6534389796614,0.0,0.0,0.0,0.0,0.0,0.0,0.0,0.0
2311.750034447,imu,0.0,0.0,0.0,0.0,0.0,0.0,0.6984110702826105,0.7156968470705306,0.11238424479961395,6.436885833740234,0.060653313994407654
2311.800034448,speed,0.0,0.0,0.0,3.206538077437515,0.0,0.0,0.0,0.0,0.0,0.0,0.0
2311.800034448,pos,-822.6078151215602,-5017.702419964475,706.6518221193744,0.0,0.0,0.0,0.0,0.0,0.0,0.0,0.0
2311.800034448,imu,0.0,0.0,0.0,0.0,0.0,0.0,0.7016818459177194,0.7124904119421551,0.23825129866600037,7.194975852966309,2.0682172775268555
2311.850034449,speed,0.0,0.0,0.0,3.5753986126551083,0.0,0.0,0.0,0.0,0.0,0.0,0.0
2311.850034449,imu,0.0,0.0,0.0,0.0,0.0,0.0,0.7066665134244033,0.7075467749941324,0.3010466694831848,7.36726713180542,3.0445096492767334
2311.850034449,pos,-822.1887411436884,-5016.5492813574365,706.6501046233725,0.0,0.0,0.0,0.0,0.0,0.0,0.0,0.0
2311.900034449,pos,-821.8292634916497,-5017.570615241802,706.6481920530563,0.0,0.0,0.0,0.0,0.0,0.0,0.0,0.0
2311.900034449,speed,0.0,0.0,0.0,3.9514708180293594,0.0,0.0,0.0,0.0,0.0,0.0,0.0
2311.900034449,imu,0.0,0.0,0.0,0.0,0.0,-0.0,-0.711366296342438,-0.7028214513146583,0.25425881147384644,7.404932022094727,0.36201241612434387
2311.95003445,speed,0.0,0.0,0.0,4.318090158071696,0.0,0.0,0.0,0.0,0.0,0.0,0.0
2311.95003445,pos,-821.3175445294387,-5016.863155087057,706.6461461018698,0.0,0.0,0.0,0.0,0.0,0.0,0.0,0.0
2311.95003445,imu,0.0,0.0,0.0,0.0,0.0,-0.0,-0.7144191280727036,-0.6997180213799256,0.13477694988250732,7.31540060043335,-1.5437891483306885
2312.000034451,imu,0.0,0.0,0.0,0.0,0.0,-0.0,-0.7162858593401743,-0.6978069702355431,0.09722137451171875,7.157635688781738,-0.9516165852546692
2312.000034451,speed,0.0,0.0,0.0,4.674008258723176,0.0,0.0,0.0,0.0,0.0,0.0,0.0
2312.000034451,pos,-821.3606731304409,-5015.829367092644,706.6440081800183,0.0,0.0,0.0,0.0,0.0,0.0,0.0,0.0
2312.050034452,speed,0.0,0.0,0.0,5.02931910989619,0.0,0.0,0.0,0.0,0.0,0.0,0.0
2312.050034452,imu,0.0,0.0,0.0,0.0,0.0,-0.0,-0.7176151846995146,-0.6964398370919642,0.0688861832022667,7.104210376739502,-0.34235358238220215
2312.050034452,pos,-821.4851199776601,-5016.2037533287,706.6417190669372,0.0,0.0,0.0,0.0,0.0,0.0,0.0,0.0
2312.100034452,speed,0.0,0.0,0.0,5.386483325872217,0.0,0.0,0.0,0.0,0.0,0.0,0.0
2312.100034452,pos,-821.6164361612555,-5015.725624896208,706.6394115489411,0.0,0.0,0.0,0.0,0.0,0.0,0.0,0.0
2312.100034452,imu,0.0,0.0,0.0,0.0,0.0,-0.0,-0.718742678569717,-0.6952761767833185,0.06652702391147614,7.151241302490234,0.002579057589173317
2312.150034453,speed,0.0,0.0,0.0,5.590178461261665,0.0,0.0,0.0,0.0,0.0,0.0,0.0
2312.150034453,imu,0.0,0.0,0.0,0.0,0.0,-0.0,-0.7193015773739062,-0.6946979493185584,-0.035142093896865845,6.099391460418701,-0.429200679063797
2312.150034453,pos,-823.740013282374,-5016.310914234008,706.6369985338924,0.0,0.0,0.0,0.0,0.0,0.0,0.0,0.0
2312.200034454,speed,0.0,0.0,0.0,5.578037247905773,0.0,0.0,0.0,0.0,0.0,0.0,0.0
2312.200034454,pos,-821.8333173770075,-5015.617356955044,706.6347659346217,0.0,0.0,0.0,0.0,0.0,0.0,0.0,0.0
2312.200034454,imu,0.0,0.0,0.0,0.0,0.0,-0.0,-0.7199632693689422,-0.6940121690284573,0.08740304410457611,0.36236831545829773,-0.14347845315933228
2312.250034455,pos,-822.6540741905123,-5015.669175701468,706.6325918914381,0.0,0.0,0.0,0.0,0.0,0.0,0.0,0.0
2312.250034455,imu,0.0,0.0,0.0,0.0,0.0,-0.0,-0.7203577879194778,-0.6936026653522582,-0.02049264870584011,-0.3147197663784027,0.4349338412284851
2312.250034455,speed,0.0,0.0,0.0,5.56828880723195,0.0,0.0,0.0,0.0,0.0,0.0,0.0
2312.300034455,speed,0.0,0.0,0.0,5.549433164060667,0.0,0.0,0.0,0.0,0.0,0.0,0.0
2312.300034455,pos,-822.0979331583783,-5016.012161579371,706.6304415291925,0.0,0.0,0.0,0.0,0.0,0.0,0.0,0.0
2312.300034455,imu,0.0,0.0,0.0,0.0,0.0,-0.0,-0.7203900338545272,-0.6935691740000224,0.022750448435544968,-0.25586092472076416,-1.3547295331954956
2312.350034456,speed,0.0,0.0,0.0,5.555037813939495,0.0,0.0,0.0,0.0,0.0,0.0,0.0
2312.350034456,pos,-821.3361314507669,-5014.604218828334,706.6282669106138,0.0,0.0,0.0,0.0,0.0,0.0,0.0,0.0
2312.350034456,imu,0.0,0.0,0.0,0.0,0.0,-0.0,-0.719832373439048,-0.6941479339082606,-0.07157163321971893,-0.12387362867593765,0.0046805269084870815
2312.400034457,speed,0.0,0.0,0.0,5.555032178572068,0.0,0.0,0.0,0.0,0.0,0.0,0.0
2312.400034457,pos,-822.5834755540753,-5014.551357265658,706.6260115305022,0.0,0.0,0.0,0.0,0.0,0.0,0.0,0.0
2312.400034457,imu,0.0,0.0,0.0,0.0,0.0,-0.0,-0.7194070746860625,-0.6945886990814364,0.009214059449732304,0.10591422021389008,-0.6642029285430908
2312.450034458,speed,0.0,0.0,0.0,5.55741560181593,0.0,0.0,0.0,0.0,0.0,0.0,0.0
2312.450034458,imu,0.0,0.0,0.0,0.0,0.0,-0.0,-0.7182682527025458,-0.6957662805566477,-0.11566490679979324,0.024507638067007065,-0.4700930416584015
2312.450034458,pos,-821.078338268778,-5013.300301040703,706.6237469765645,0.0,0.0,0.0,0.0,0.0,0.0,0.0,0.0
2312.500034458,speed,0.0,0.0,0.0,5.985709653271572,0.0,0.0,0.0,0.0,0.0,0.0,0.0
2312.500034458,pos,-821.7976428514492,-5013.620116306777,706.6211232654871,0.0,0.0,0.0,0.0,0.0,0.0,0.0,0.0
2312.500034458,imu,0.0,0.0,0.0,0.0,0.0,-0.0,-0.7170763227436768,-0.6969946537531018,-0.057037267833948135,4.013142108917236,-0.6194642186164856
2312.550034459,imu,0.0,0.0,0.0,0.0,0.0,-0.0,-0.7160781976928443,-0.6980200676119332,-0.05936102941632271,11.46622371673584,0.14915858209133148
2312.550034459,pos,-822.1780788311048,-5014.003983561802,706.6178270895273,0.0,0.0,0.0,0.0,0.0,0.0,0.0,0.0
2312.550034459,speed,0.0,0.0,0.0,6.5213208685614195,0.0,0.0,0.0,0.0,0.0,0.0,0.0
2312.60003446,speed,0.0,0.0,0.0,6.928849114287737,0.0,0.0,0.0,0.0,0.0,0.0,0.0
2312.60003446,imu,0.0,0.0,0.0,0.0,0.0,-0.0,-0.715275909281737,-0.6988421664447447,-0.027140209451317787,9.499956130981445,-0.6673035025596619
2312.60003446,pos,-823.0909368606686,-5013.5537047084445,706.614375491472,0.0,0.0,0.0,0.0,0.0,0.0,0.0,0.0
2312.650034461,pos,-822.1738220006856,-5012.654306695274,706.6109965852565,0.0,0.0,0.0,0.0,0.0,0.0,0.0,0.0
2312.650034461,imu,0.0,0.0,0.0,0.0,0.0,-0.0,-0.7142753091669161,-0.6998648317457496,-0.09672597050666809,4.537221908569336,-0.10273649543523788
2312.650034461,speed,0.0,0.0,0.0,7.04569404069416,0.0,0.0,0.0,0.0,0.0,0.0,0.0
2312.700034461,pos,-821.9250767521472,-5011.756370801578,706.6079121290932,0.0,0.0,0.0,0.0,0.0,0.0,0.0,0.0
2312.700034461,imu,0.0,0.0,0.0,0.0,0.0,-0.0,-0.7135741359050023,-0.7005797260608027,-0.0012700955849140882,0.4357592463493347,-0.5042281150817871
2312.700034461,speed,0.0,0.0,0.0,7.04837050722001,0.0,0.0,0.0,0.0,0.0,0.0,0.0
2312.750034462,speed,0.0,0.0,0.0,6.991666361738644,0.0,0.0,0.0,0.0,0.0,0.0,0.0
2312.750034462,imu,0.0,0.0,0.0,0.0,0.0,-0.0,-0.7121977614033714,-0.7019788804885988,-0.12865765392780304,-0.9197621941566467,-0.7414572238922119
2312.750034462,pos,-822.2785484437065,-5013.002199803241,706.6049532233303,0.0,0.0,0.0,0.0,0.0,0.0,0.0,0.0
2312.800034463,speed,0.0,0.0,0.0,6.940171415307944,0.0,0.0,0.0,0.0,0.0,0.0,0.0
2312.800034463,pos,-822.5510793034691,-5011.765557864989,706.602021747404,0.0,0.0,0.0,0.0,0.0,0.0,0.0,0.0
2312.800034463,imu,0.0,0.0,0.0,0.0,0.0,-0.0,-0.7110230370178307,-0.7031687143423977,-0.027189286425709724,-1.318969964981079,-0.6916707158088684
2312.850034464,speed,0.0,0.0,0.0,6.916132127468959,0.0,0.0,0.0,0.0,0.0,0.0,0.0
2312.850034464,pos,-822.6334237926903,-5011.627027288088,706.5990899206583,0.0,0.0,0.0,0.0,0.0,0.0,0.0,0.0
2312.850034464,imu,0.0,0.0,0.0,0.0,0.0,-0.0,-0.709677029191377,-0.7045271564944118,-0.1129872053861618,-0.630972683429718,-0.026113884523510933
2312.900034464,speed,0.0,0.0,0.0,6.924370639477193,0.0,0.0,0.0,0.0,0.0,0.0,0.0
2312.900034464,pos,-821.7920857755777,-5011.136992589561,706.5960408455962,0.0,0.0,0.0,0.0,0.0,0.0,0.0,0.0
2312.900034464,imu,0.0,0.0,0.0,0.0,0.0,-0.0,-0.7088395222678175,-0.7053697836391435,-0.007210094481706619,-0.14730440080165863,-0.4381438195705414
2312.900034464,speed,0.0,0.0,0.0,7.001633690475788,0.0,0.0,0.0,0.0,0.0,0.0,0.0
2312.950034465,imu,0.0,0.0,0.0,0.0,0.0,-0.0,-0.7076097736716347,-0.706603430648605,-0.10707052797079086,0.9734093546867371,-0.45665547251701355
2312.950034465,pos,-822.6155809171433,-5010.917108410215,706.5928938076081,0.0,0.0,0.0,0.0,0.0,0.0,0.0,0.0
2313.000034466,speed,0.0,0.0,0.0,7.155717514550789,0.0,0.0,0.0,0.0,0.0,0.0,0.0
2313.000034466,pos,-822.7972175997262,-5011.227025064667,706.5895680303881,0.0,0.0,0.0,0.0,0.0,0.0,0.0,0.0
2313.000034466,imu,0.0,0.0,0.0,0.0,0.0,0.0,0.7068625984237298,0.707350879655672,-0.0005848302971571684,2.5430970191955566,-0.290878564119339
2313.050034467,speed,0.0,0.0,0.0,7.374392898208986,0.0,0.0,0.0,0.0,0.0,0.0,0.0
2313.050034467,imu,0.0,0.0,0.0,0.0,0.0,0.0,0.7059285977780334,0.7082830047651429,-0.0832865983247757,3.914187431335449,-0.17990337312221527
2313.050034467,pos,-822.4236305232042,-5010.660269230325,706.5860928111842,0.0,0.0,0.0,0.0,0.0,0.0,0.0,0.0
2313.100034467,imu,0.0,0.0,0.0,0.0,0.0,0.0,0.7054133023381473,0.7087962139320367,0.0048563554883003235,5.084550380706787,-0.2518344819545746
2313.100034467,speed,0.0,0.0,0.0,7.649105885351805,0.0,0.0,0.0,0.0,0.0,0.0,0.0
2313.100034467,pos,-821.8250898809138,-5009.979608806119,706.5824266466441,0.0,0.0,0.0,0.0,0.0,0.0,0.0,0.0
2313.150034468,imu,0.0,0.0,0.0,0.0,0.0,0.0,0.7045125373035369,0.7096915419970373,-0.09371121227741241,2.998901605606079,-0.32970571517944336
2313.150034468,speed,0.0,0.0,0.0,7.68659471529552,0.0,0.0,0.0,0.0,0.0,0.0,0.0
2313.150034468,pos,-822.7429504714662,-5008.848139861756,706.5787027133067,0.0,0.0,0.0,0.0,0.0,0.0,0.0,0.0
2313.200034469,speed,0.0,0.0,0.0,7.688179373070539,0.0,0.0,0.0,0.0,0.0,0.0,0.0
2313.200034469,imu,0.0,0.0,0.0,0.0,0.0,0.0,0.7038813364173515,0.710317579849551,0.005283687263727188,-0.3086964190006256,-0.4651634395122528
2313.200034469,pos,-822.1733737305816,-5009.511177299363,706.5750700145159,0.0,0.0,0.0,0.0,0.0,0.0,0.0,0.0
2313.25003447,speed,0.0,0.0,0.0,8.040293868354008,0.0,0.0,0.0,0.0,0.0,0.0,0.0
2313.25003447,pos,-822.362156393241,-5008.164964801012,706.5712919869818,0.0,0.0,0.0,0.0,0.0,0.0,0.0,0.0
2313.25003447,imu,0.0,0.0,0.0,0.0,0.0,0.0,0.7028939513517779,0.7112946598654347,-0.056664757430553436,2.6431705951690674,-0.23125556111335754
2313.30003447,imu,0.0,0.0,0.0,0.0,0.0,0.0,0.7021263385113883,0.712052389061782,-0.032951951026916504,10.264216423034668,-0.35270369052886963
2313.30003447,pos,-822.4416363672682,-5006.54428263898,706.566989210259,0.0,0.0,0.0,0.0,0.0,0.0,0.0,0.0
2313.30003447,speed,0.0,0.0,0.0,8.484609587065597,0.0,0.0,0.0,0.0,0.0,0.0,0.0
2313.350034471,imu,0.0,0.0,0.0,0.0,0.0,0.0,0.7014372435009818,0.712731221029179,-0.05159910023212433,7.652003765106201,-0.274588406085968
2313.350034471,speed,0.0,0.0,0.0,8.831508672584189,0.0,0.0,0.0,0.0,0.0,0.0,0.0
2313.350034471,pos,-822.9288158033359,-5007.846828579341,706.5625314793742,0.0,0.0,0.0,0.0,0.0,0.0,0.0,0.0
2313.350034471,pos,-822.77584332737,-5006.433780504557,706.5580156778219,0.0,0.0,0.0,0.0,0.0,0.0,0.0,0.0
2313.350034471,imu,0.0,0.0,0.0,0.0,0.0,0.0,0.7010251290374789,0.7131365706917476,0.00030623821658082306,5.909792900085449,-0.1715157926082611
2313.400034472,speed,0.0,0.0,0.0,9.097556229778496,0.0,0.0,0.0,0.0,0.0,0.0,0.0
2313.450034473,speed,0.0,0.0,0.0,9.20034740794014,0.0,0.0,0.0,0.0,0.0,0.0,0.0
2313.450034473,pos,-820.6689351618594,-5006.884379660957,706.5535536816069,0.0,0.0,0.0,0.0,0.0,0.0,0.0,0.0
2313.450034473,imu,0.0,0.0,0.0,0.0,0.0,0.0,0.7011327847351166,0.7130307273670473,-0.01141814049333334,3.2981348037719727,0.9022544026374817
2313.500034473,speed,0.0,0.0,0.0,8.441558177538793,0.0,0.0,0.0,0.0,0.0,0.0,0.0
2313.500034473,imu,0.0,0.0,0.0,0.0,0.0,0.0,0.7014345837189158,0.7127338386544246,-0.0016743055311962962,-7.489547252655029,-0.8714829087257385
2313.500034473,pos,-822.6714487640844,-5006.508148557312,706.5498376872836,0.0,0.0,0.0,0.0,0.0,0.0,0.0,0.0
2313.550034474,speed,0.0,0.0,0.0,7.232676605968294,0.0,0.0,0.0,0.0,0.0,0.0,0.0
2313.550034474,imu,0.0,0.0,0.0,0.0,0.0,0.0,0.7001069731850099,0.7140379724480511,-0.11694047600030899,-22.965110778808594,-2.320326328277588
2313.550034474,pos,-822.4191060447779,-5007.2631617331035,706.5474832830505,0.0,0.0,0.0,0.0,0.0,0.0,0.0,0.0
2313.600034475,speed,0.0,0.0,0.0,5.929760856681803,0.0,0.0,0.0,0.0,0.0,0.0,0.0
2313.600034475,imu,0.0,0.0,0.0,0.0,0.0,0.0,0.6968755361903343,0.717192085190177,-0.21838875114917755,-26.012062072753906,-3.3295252323150635
2313.600034475,pos,-822.5847809597275,-5006.047260767326,706.5461191271265,0.0,0.0,0.0,0.0,0.0,0.0,0.0,0.0
2313.650034476,speed,0.0,0.0,0.0,4.601403369686901,0.0,0.0,0.0,0.0,0.0,0.0,0.0
2313.650034476,pos,-822.038993750225,-5004.881200456682,706.5452602705611,0.0,0.0,0.0,0.0,0.0,0.0,0.0,0.0
2313.650034476,imu,0.0,0.0,0.0,0.0,0.0,0.0,0.6920998136920314,0.7218018065144027,-0.29015862941741943,-26.672231674194336,-3.1688408851623535
2313.700034476,pos,-823.4107902436587,-5004.8301612846235,706.5448106435824,0.0,0.0,0.0,0.0,0.0,0.0,0.0,0.0
2313.700034476,speed,0.0,0.0,0.0,3.2418709716160654,0.0,0.0,0.0,0.0,0.0,0.0,0.0
2313.700034476,imu,0.0,0.0,0.0,0.0,0.0,0.0,0.6866843476247487,0.726955711668306,-0.29497119784355164,-27.129484176635742,-2.067661762237549
2313.750034477,speed,0.0,0.0,0.0,1.87307088503161,0.0,0.0,0.0,0.0,0.0,0.0,0.0
2313.750034477,pos,-822.3765077349267,-5005.849184801584,706.5449194969965,0.0,0.0,0.0,0.0,0.0,0.0,0.0,0.0
2313.750034477,imu,0.0,0.0,0.0,0.0,0.0,0.0,0.6818200647498355,0.7315199240653191,-0.2347966432571411,-27.5986385345459,-0.36922937631607056
2313.800034478,speed,0.0,0.0,0.0,0.5448001881383473,0.0,0.0,0.0,0.0,0.0,0.0,0.0
2313.800034478,pos,-821.9206456468636,-5005.033755094667,706.545534618582,0.0,0.0,0.0,0.0,0.0,0.0,0.0,0.0
2313.800034478,imu,0.0,0.0,0.0,0.0,0.0,0.0,0.6790364059999117,0.7341045969933189,-0.07844307273626328,-27.31644058227539,2.4031434059143066
2313.850034479,speed,0.0,0.0,0.0,0.0008852903996438298,0.0,0.0,0.0,0.0,0.0,0.0,0.0
2313.850034479,pos,-822.3154204176055,-5005.8384656564585,706.5460745856926,0.0,0.0,0.0,0.0,0.0,0.0,0.0,0.0
2313.850034479,imu,0.0,0.0,0.0,0.0,0.0,0.0,0.6789533061881643,0.7341814544212901,0.0036084926687180996,-19.399736404418945,2.7262399196624756
2313.900034479,imu,0.0,0.0,0.0,0.0,0.0,0.0,0.6789911773705456,0.7341464302528211,0.003281401237472892,-1.3382670879364014,-0.2675718665122986
2313.900034479,speed,0.0,0.0,0.0,-0.009456539466641805,0.0,0.0,0.0,0.0,0.0,0.0,0.0
2313.900034479,pos,-822.6572864043723,-5005.032746372585,706.5456299394768,0.0,0.0,0.0,0.0,0.0,0.0,0.0,0.0
2313.95003448,speed,0.0,0.0,0.0,-0.013286025842238189,0.0,0.0,0.0,0.0,0.0,0.0,0.0
2313.95003448,pos,-822.3027331964933,-5005.550488135159,706.5446759513812,0.0,0.0,0.0,0.0,0.0,0.0,0.0,0.0
2313.95003448,imu,0.0,0.0,0.0,0.0,0.0,0.0,0.6790108329151063,0.734128250909835,0.0008350337739102542,-0.08940646052360535,-0.024720797315239906
2314.000034481,speed,0.0,0.0,0.0,-0.01424382826010089,0.0,0.0,0.0,0.0,0.0,0.0,0.0
2314.000034481,pos,-823.0094198577265,-5005.30744953793,706.5436983602974,0.0,0.0,0.0,0.0,0.0,0.0,0.0,0.0
2314.000034481,imu,0.0,0.0,0.0,0.0,0.0,0.0,0.6790201039714447,0.7341196758040262,0.000800727866590023,-0.30088716745376587,0.004085489083081484
2314.050034482,imu,0.0,0.0,0.0,0.0,0.0,0.0,0.6790215096619777,0.7341183756155193,0.0017877500504255295,-0.35300764441490173,-0.10564728826284409
2314.050034482,pos,-822.0106317671944,-5006.309631350593,706.5428802418546,0.0,0.0,0.0,0.0,0.0,0.0,0.0,0.0
2314.050034482,speed,0.0,0.0,0.0,-0.013576338621101655,0.0,0.0,0.0,0.0,0.0,0.0,0.0
2314.100034482,speed,0.0,0.0,0.0,-0.012134906523883156,0.0,0.0,0.0,0.0,0.0,0.0,0.0
2314.100034482,imu,0.0,0.0,0.0,0.0,0.0,0.0,0.6790203856567121,0.7341194152606305,-0.0009598360047675669,-0.34367793798446655,-0.07930286973714828
2314.100034482,pos,-822.4770483810953,-5005.496601204972,706.542171673457,0.0,0.0,0.0,0.0,0.0,0.0,0.0,0.0
2314.150034483,speed,0.0,0.0,0.0,0.053925376367724924,0.0,0.0,0.0,0.0,0.0,0.0,0.0
2314.150034483,pos,-822.2359829592722,-5005.223601546338,706.5414433606479,0.0,0.0,0.0,0.0,0.0,0.0,0.0,0.0
2314.150034483,imu,0.0,0.0,0.0,0.0,0.0,0.0,0.6790063395588696,0.7341324068850694,-0.00825351569801569,0.11072947084903717,0.06638896465301514
2314.200034484,speed,0.0,0.0,0.0,0.03538429262233404,0.0,0.0,0.0,0.0,0.0,0.0,0.0
2314.200034484,imu,0.0,0.0,0.0,0.0,0.0,0.0,0.6790288170247936,0.7341116166155589,-0.0004614455974660814,0.23359189927577972,-0.021982628852128983
2314.200034484,pos,-822.1844253916491,-5004.735572337462,706.5408033689847,0.0,0.0,0.0,0.0,0.0,0.0,0.0,0.0
2314.250034485,pos,-822.5323238068202,-5005.61018250751,706.5401938689238,0.0,0.0,0.0,0.0,0.0,0.0,0.0,0.0
2314.250034485,speed,0.0,0.0,0.0,0.18477883904725118,0.0,0.0,0.0,0.0,0.0,0.0,0.0
2314.250034485,imu,0.0,0.0,0.0,0.0,0.0,0.0,0.6791273531944271,0.7340204616651581,0.004238281864672899,1.50546133518219,0.09338882565498352
2314.300034485,speed,0.0,0.0,0.0,0.34659784833623175,0.0,0.0,0.0,0.0,0.0,0.0,0.0
2314.300034485,pos,-823.1760645696097,-5004.884420744232,706.5395234509776,0.0,0.0,0.0,0.0,0.0,0.0,0.0,0.0
2314.300034485,imu,0.0,0.0,0.0,0.0,0.0,0.0,0.6793072534282736,0.7338539741935961,0.023472635075449944,2.6754796504974365,0.10816111415624619
2314.350034486,speed,0.0,0.0,0.0,0.44146387467754467,0.0,0.0,0.0,0.0,0.0,0.0,0.0
2314.350034486,imu,0.0,0.0,0.0,0.0,0.0,0.0,0.679729059634053,0.7334632952568289,0.002677269047126174,2.7170004844665527,0.13287614285945892
2314.350034486,pos,-822.5881629731326,-5005.0325092795,706.5388231366596,0.0,0.0,0.0,0.0,0.0,0.0,0.0,0.0
2314.350034486,imu,0.0,0.0,0.0,0.0,0.0,0.0,0.6800169082281367,0.733196429699331,0.0014849227154627442,-5.216342449188232,-0.25409966707229614
2314.400034487,pos,-822.4506239023233,-5006.408596913973,706.5387317970608,0.0,0.0,0.0,0.0,0.0,0.0,0.0,0.0
2314.400034487,speed,0.0,0.0,0.0,0.001783663618311494,0.0,0.0,0.0,0.0,0.0,0.0,0.0
2314.450034487,speed,0.0,0.0,0.0,0.08678070690341178,0.0,0.0,0.0,0.0,0.0,0.0,0.0
2314.450034487,imu,0.0,0.0,0.0,0.0,0.0,0.0,0.6800346482742862,0.7331799759584736,0.005283943843096495,-3.0745623111724854,-0.06267248094081879
2314.450034487,pos,-821.8049501452614,-5005.392672121372,706.5386910171314,0.0,0.0,0.0,0.0,0.0,0.0,0.0,0.0
2314.450034487,speed,0.0,0.0,0.0,0.40709717500046305,0.0,0.0,0.0,0.0,0.0,0.0,0.0
2314.500034488,imu,0.0,0.0,0.0,0.0,0.0,0.0,0.6801389910181798,0.7330831827949489,0.00498538464307785,4.722221851348877,0.051006000488996506
2314.500034488,pos,-822.5348071606358,-5004.599544770892,706.538240546786,0.0,0.0,0.0,0.0,0.0,0.0,0.0,0.0
2314.550034489,speed,0.0,0.0,0.0,0.5782019540239338,0.0,0.0,0.0,0.0,0.0,0.0,0.0
2314.550034489,pos,-822.2639366316419,-5004.664476521413,706.5376608673187,0.0,0.0,0.0,0.0,0.0,0.0,0.0,0.0
2314.550034489,imu,0.0,0.0,0.0,0.0,0.0,0.0,0.680142787026321,0.7330796609210137,0.026113079860806465,5.0721940994262695,0.13791833817958832
2314.550034489,speed,0.0,0.0,0.0,0.88808181554336,0.0,0.0,0.0,0.0,0.0,0.0,0.0
2314.60003449,pos,-822.3518464393987,-5005.263117167348,706.5368931486753,0.0,0.0,0.0,0.0,0.0,0.0,0.0,0.0
2314.60003449,imu,0.0,0.0,0.0,0.0,0.0,0.0,0.6805181903649342,0.7327311871228324,0.03351907804608345,4.979687213897705,0.44316962361335754
2314.65003449,speed,0.0,0.0,0.0,1.143680424634661,0.0,0.0,0.0,0.0,0.0,0.0,0.0
2314.65003449,pos,-822.2033675635021,-5005.261876564415,706.5360079084371,0.0,0.0,0.0,0.0,0.0,0.0,0.0,0.0
2314.65003449,imu,0.0,0.0,0.0,0.0,0.0,0.0,0.6812926934036097,0.7320111105132593,0.04340479150414467,5.178121089935303,0.43467584252357483
2314.700034491,pos,-821.3996213324062,-5004.567740959632,706.5351594401341,0.0,0.0,0.0,0.0,0.0,0.0,0.0,0.0
2314.700034491,imu,0.0,0.0,0.0,0.0,0.0,0.0,0.6819869445018594,0.7313643466351213,0.04323582723736763,4.5884552001953125,0.15264280140399933
2314.700034491,speed,0.0,0.0,0.0,1.3633040852112175,0.0,0.0,0.0,0.0,0.0,0.0,0.0
2314.750034492,speed,0.0,0.0,0.0,1.5374050115073539,0.0,0.0,0.0,0.0,0.0,0.0,0.0
2314.750034492,imu,0.0,0.0,0.0,0.0,0.0,0.0,0.6828131572925237,0.7305930414589338,0.048602908849716187,3.748136520385742,0.2829495072364807
2314.750034492,pos,-822.7244067894143,-5005.0511248022385,706.5342112994044,0.0,0.0,0.0,0.0,0.0,0.0,0.0,0.0
2314.750034492,speed,0.0,0.0,0.0,1.805283469373791,0.0,0.0,0.0,0.0,0.0,0.0,0.0
2314.800034493,imu,0.0,0.0,0.0,0.0,0.0,0.0,0.6839019832069464,0.7295739012366093,0.07025708258152008,4.741947174072266,0.34840455651283264
2314.800034493,pos,-822.0991199950658,-5005.00736878025,706.5332406738316,0.0,0.0,0.0,0.0,0.0,0.0,0.0,0.0
2314.850034493,speed,0.0,0.0,0.0,2.0103994712090727,0.0,0.0,0.0,0.0,0.0,0.0,0.0
2314.850034493,imu,0.0,0.0,0.0,0.0,0.0,0.0,0.6857729729629679,0.7278155189012752,0.11935937404632568,4.622505187988281,1.2001584768295288
2314.850034493,pos,-821.1325290892037,-5004.124548008706,706.5321248348373,0.0,0.0,0.0,0.0,0.0,0.0,0.0,0.0
2314.900034494,speed,0.0,0.0,0.0,2.263928256233516,0.0,0.0,0.0,0.0,0.0,0.0,0.0
2314.900034494,imu,0.0,0.0,0.0,0.0,0.0,0.0,0.6877788375964135,0.7259202921495763,0.10681699961423874,4.298999309539795,0.3778589069843292
2314.900034494,pos,-821.9947141258954,-5004.282098109707,706.531033141071,0.0,0.0,0.0,0.0,0.0,0.0,0.0,0.0
2314.950034495,pos,-822.403840851956,-5004.7945382823245,706.5297557824535,0.0,0.0,0.0,0.0,0.0,0.0,0.0,0.0
2314.950034495,speed,0.0,0.0,0.0,2.5330360143895065,0.0,0.0,0.0,0.0,0.0,0.0,0.0
2314.950034495,imu,0.0,0.0,0.0,0.0,0.0,0.0,0.6899430445564286,0.7238636579275174,0.1251620501279831,5.425924777984619,0.5152528882026672
2315.000034496,imu,0.0,0.0,0.0,0.0,0.0,0.0,0.6929765011027608,0.7209601715208513,0.19683031737804413,4.139827251434326,1.6420795917510986
2315.000034496,pos,-822.9360465083918,-5004.46422737947,706.5283772309731,0.0,0.0,0.0,0.0,0.0,0.0,0.0,0.0
2315.000034496,speed,0.0,0.0,0.0,2.6967298097450305,0.0,0.0,0.0,0.0,0.0,0.0,0.0
2315.050034496,pos,-822.0733176519259,-5004.229957262662,706.5271037402231,0.0,0.0,0.0,0.0,0.0,0.0,0.0,0.0
2315.050034496,speed,0.0,0.0,0.0,2.760149579587244,0.0,0.0,0.0,0.0,0.0,0.0,0.0
2315.050034496,imu,0.0,0.0,0.0,0.0,0.0,0.0,0.6966933585633828,0.7173690571342437,0.2097288966178894,1.8009229898452759,1.4230961799621582
2315.100034497,speed,0.0,0.0,0.0,2.782837934920523,0.0,0.0,0.0,0.0,0.0,0.0,0.0
2315.100034497,pos,-821.25250809377,-5003.972853643508,706.5259397967768,0.0,0.0,0.0,0.0,0.0,0.0,0.0,0.0
2315.100034497,imu,0.0,0.0,0.0,0.0,0.0,0.0,0.7002664705175782,0.7138815519880408,0.19686952233314514,0.5288971066474915,0.39626964926719666
2315.150034498,speed,0.0,0.0,0.0,2.7924419205016653,0.0,0.0,0.0,0.0,0.0,0.0,0.0
2315.150034498,pos,-822.2726542645618,-5004.272379263075,706.5247431018056,0.0,0.0,0.0,0.0,0.0,0.0,0.0,0.0
2315.150034498,imu,0.0,0.0,0.0,0.0,0.0,0.0,0.7031496692091559,0.7110418712643122,0.14923644065856934,0.16093116998672485,-0.40901151299476624
2315.200034499,imu,0.0,0.0,0.0,0.0,0.0,0.0,0.7049507708653185,0.7092562376577263,0.08001848310232162,0.2319653183221817,-1.141894817352295
2315.200034499,pos,-822.2620880533947,-5003.403519612869,706.5236161352937,0.0,0.0,0.0,0.0,0.0,0.0,0.0,0.0
2315.200034499,speed,0.0,0.0,0.0,2.8155374305287015,0.0,0.0,0.0,0.0,0.0,0.0,0.0
2315.200034499,speed,0.0,0.0,0.0,2.8721552489204365,0.0,0.0,0.0,0.0,0.0,0.0,0.0
2315.250034499,imu,0.0,0.0,0.0,0.0,0.0,0.0,0.7062175374112047,0.7079949080698629,0.06908154487609863,0.7552590370178223,-0.4291558563709259
2315.250034499,pos,-822.7295656932695,-5004.287398509389,706.5224583428687,0.0,0.0,0.0,0.0,0.0,0.0,0.0,0.0
2315.3000345,speed,0.0,0.0,0.0,3.0069881709271273,0.0,0.0,0.0,0.0,0.0,0.0,0.0
2315.3000345,imu,0.0,0.0,0.0,0.0,0.0,-0.0,-0.7081345227263696,-0.7060775437040161,0.134862020611763,2.088779926300049,1.2699556350708008
2315.3000345,pos,-821.4050486070347,-5004.33730265574,706.5211199977115,0.0,0.0,0.0,0.0,0.0,0.0,0.0,0.0
2315.3000345,speed,0.0,0.0,0.0,3.219714814713547,0.0,0.0,0.0,0.0,0.0,0.0,0.0
2315.350034501,pos,-823.8711509593369,-5002.710537200472,706.5195878215582,0.0,0.0,0.0,0.0,0.0,0.0,0.0,0.0
2315.350034501,imu,0.0,0.0,0.0,0.0,0.0,-0.0,-0.7100555364054896,-0.704145677555371,0.09957479685544968,3.701714038848877,0.14380310475826263
2315.400034502,speed,0.0,0.0,0.0,3.4881376518967246,0.0,0.0,0.0,0.0,0.0,0.0,0.0
2315.400034502,imu,0.0,0.0,0.0,0.0,0.0,-0.0,-0.7109294828708662,-0.7032633008944537,0.030084656551480293,5.022607326507568,-1.296379566192627
2315.400034502,pos,-821.4992029711083,-5003.450342256599,706.517919068564,0.0,0.0,0.0,0.0,0.0,0.0,0.0,0.0
2315.450034502,speed,0.0,0.0,0.0,3.721908354477914,0.0,0.0,0.0,0.0,0.0,0.0,0.0
2315.450034502,pos,-821.5610842547338,-5003.009993776585,706.5159723124552,0.0,0.0,0.0,0.0,0.0,0.0,0.0,0.0
2315.450034502,imu,0.0,0.0,0.0,0.0,0.0,-0.0,-0.7113016129730627,-0.7028869150737688,0.01980890892446041,5.113923072814941,-0.5134528279304504
2315.500034503,speed,0.0,0.0,0.0,3.8864831194803355,0.0,0.0,0.0,0.0,0.0,0.0,0.0
2315.500034503,pos,-821.7851154797603,-5003.069478340081,706.5140689343062,0.0,0.0,0.0,0.0,0.0,0.0,0.0,0.0
2315.500034503,imu,0.0,0.0,0.0,0.0,0.0,-0.0,-0.7124173091836618,-0.7017560670029942,0.09022688865661621,3.6255247592926025,1.2852647304534912
2315.500034503,speed,0.0,0.0,0.0,4.078923317617944,0.0,0.0,0.0,0.0,0.0,0.0,0.0
2315.550034504,imu,0.0,0.0,0.0,0.0,0.0,-0.0,-0.7124614780570937,-0.7017112242829677,-0.05890365689992905,3.424159526824951,-1.7381787300109863
2315.550034504,pos,-822.7423574837015,-5002.2751973614895,706.5120262945782,0.0,0.0,0.0,0.0,0.0,0.0,0.0,0.0
2315.600034505,speed,0.0,0.0,0.0,4.289750955728488,0.0,0.0,0.0,0.0,0.0,0.0,0.0
2315.600034505,pos,-821.107656976407,-5002.20375173316,706.5098210868446,0.0,0.0,0.0,0.0,0.0,0.0,0.0,0.0
2315.600034505,imu,0.0,0.0,0.0,0.0,0.0,-0.0,-0.7120449404625613,-0.7021338923322727,-0.0030844395514577627,4.264310359954834,-0.4178197383880615
2315.650034505,pos,-822.8019101665379,-5002.100142366995,706.5075924558046,0.0,0.0,0.0,0.0,0.0,0.0,0.0,0.0
2315.650034505,speed,0.0,0.0,0.0,4.468665650295913,0.0,0.0,0.0,0.0,0.0,0.0,0.0
2315.650034505,imu,0.0,0.0,0.0,0.0,0.0,-0.0,-0.7121890583786608,-0.7019877100959222,0.011754659935832024,3.5995352268218994,0.6885608434677124
2315.700034506,speed,0.0,0.0,0.0,4.637995264700669,0.0,0.0,0.0,0.0,0.0,0.0,0.0
2315.700034506,imu,0.0,0.0,0.0,0.0,0.0,-0.0,-0.7125258859378576,-0.7016458236663787,0.0228419229388237,3.5540931224823,0.2599346339702606
2315.700034506,pos,-821.9283736570817,-5002.998277891014,706.5052759271923,0.0,0.0,0.0,0.0,0.0,0.0,0.0,0.0
2315.750034507,speed,0.0,0.0,0.0,4.713378355290348,0.0,0.0,0.0,0.0,0.0,0.0,0.0
2315.750034507,imu,0.0,0.0,0.0,0.0,0.0,-0.0,-0.713009505902967,-0.7011543656656549,0.028814492747187614,2.2090139389038086,0.30321091413497925
2315.750034507,pos,-822.0721973056675,-5000.645556446698,706.5029905882193,0.0,0.0,0.0,0.0,0.0,0.0,0.0,0.0
2315.800034508,speed,0.0,0.0,0.0,4.668147463770167,0.0,0.0,0.0,0.0,0.0,0.0,0.0
2315.800034508,pos,-822.2683323551742,-5001.942023953702,706.5008583037422,0.0,0.0,0.0,0.0,0.0,0.0,0.0,0.0
2315.800034508,imu,0.0,0.0,0.0,0.0,0.0,-0.0,-0.7135320427489489,-0.7006225973878606,0.031385138630867004,-0.019710974767804146,0.16305531561374664
2315.850034508,speed,0.0,0.0,0.0,4.570151246975232,0.0,0.0,0.0,0.0,0.0,0.0,0.0
2315.850034508,imu,0.0,0.0,0.0,0.0,0.0,-0.0,-0.7130108432474908,-0.7011530057066733,-0.055232755839824677,-1.9627894163131714,-1.5816293954849243
2315.850034508,pos,-821.647444486311,-5001.647094011091,706.4987790434361,0.0,0.0,0.0,0.0,0.0,0.0,0.0,0.0
2315.900034509,speed,0.0,0.0,0.0,4.509230180519598,0.0,0.0,0.0,0.0,0.0,0.0,0.0
2315.900034509,pos,-822.0821171066355,-5001.372666859227,706.4967335109985,0.0,0.0,0.0,0.0,0.0,0.0,0.0,0.0
2315.900034509,imu,0.0,0.0,0.0,0.0,0.0,-0.0,-0.7118885695610567,-0.7022924351922869,-0.06682590395212173,-1.6608083248138428,-0.9093963503837585
2315.900034509,pos,-822.5420189737208,-4999.94052959603,706.4945982636318,0.0,0.0,0.0,0.0,0.0,0.0,0.0,0.0
2315.95003451,imu,0.0,0.0,0.0,0.0,0.0,-0.0,-0.7106670282155276,-0.7035285175508598,-0.07237228006124496,-0.2339378446340561,-0.451358437538147
2315.95003451,speed,0.0,0.0,0.0,4.535864949594401,0.0,0.0,0.0,0.0,0.0,0.0,0.0
2316.000034511,speed,0.0,0.0,0.0,4.67918058894585,0.0,0.0,0.0,0.0,0.0,0.0,0.0
2316.000034511,imu,0.0,0.0,0.0,0.0,0.0,-0.0,-0.7094413242663848,-0.7047645049398829,-0.07009245455265045,1.987457275390625,-0.35956472158432007
2316.000034511,pos,-821.3516737273677,-5000.954373520822,706.4923382776274,0.0,0.0,0.0,0.0,0.0,0.0,0.0,0.0
2316.050034511,speed,0.0,0.0,0.0,4.907549839728918,0.0,0.0,0.0,0.0,0.0,0.0,0.0
2316.050034511,pos,-822.2793536492877,-5000.656184272982,706.4898641668415,0.0,0.0,0.0,0.0,0.0,0.0,0.0,0.0
2316.050034511,imu,0.0,0.0,0.0,0.0,0.0,-0.0,-0.709256131876878,-0.7049508772922044,0.013252051547169685,4.028408527374268,1.3754633665084839
2316.100034512,speed,0.0,0.0,0.0,5.178144900193513,0.0,0.0,0.0,0.0,0.0,0.0,0.0
2316.100034512,pos,-822.1919524407455,-5000.494046024639,706.4872395208426,0.0,0.0,0.0,0.0,0.0,0.0,0.0,0.0
2316.100034512,imu,0.0,0.0,0.0,0.0,0.0,-0.0,-0.7086777209472253,-0.7055323435768531,-0.053799357265233994,5.181822299957275,-0.963437020778656
2316.150034513,speed,0.0,0.0,0.0,5.405531082744736,0.0,0.0,0.0,0.0,0.0,0.0,0.0
2316.150034513,imu,0.0,0.0,0.0,0.0,0.0,-0.0,-0.7075632751411414,-0.706649992338174,-0.05534809082746506,5.209317207336426,-0.8712980151176453
2316.150034513,pos,-822.2849396931019,-5000.599457874692,706.4844052488888,0.0,0.0,0.0,0.0,0.0,0.0,0.0,0.0
2316.200034514,speed,0.0,0.0,0.0,4.527405021542759,0.0,0.0,0.0,0.0,0.0,0.0,0.0
2316.200034514,pos,-822.4628983138334,-4999.600605889738,706.482202151713,0.0,0.0,0.0,0.0,0.0,0.0,0.0,0.0
2316.200034514,imu,0.0,0.0,0.0,0.0,0.0,0.0,0.7059035059505996,0.7083080122987823,-0.08670546859502792,-7.302429676055908,-0.6197717189788818
2316.250034514,speed,0.0,0.0,0.0,3.1724638135468872,0.0,0.0,0.0,0.0,0.0,0.0,0.0
2316.250034514,imu,0.0,0.0,0.0,0.0,0.0,0.0,0.7039949595730352,0.7102049682280184,-0.12122198194265366,-26.798233032226562,-1.3260352611541748
2316.250034514,pos,-822.6645298177872,-4999.170308386257,706.481470748487,0.0,0.0,0.0,0.0,0.0,0.0,0.0,0.0
2316.300034515,speed,0.0,0.0,0.0,1.826837687786343,0.0,0.0,0.0,0.0,0.0,0.0,0.0
2316.300034515,imu,0.0,0.0,0.0,0.0,0.0,0.0,0.7017152881565613,0.7124574754800136,-0.12462982535362244,-27.497011184692383,-1.0629911422729492
2316.300034515,pos,-822.6322209369575,-4999.572343236115,706.481784225932,0.0,0.0,0.0,0.0,0.0,0.0,0.0,0.0
2316.350034516,speed,0.0,0.0,0.0,0.5190199822190644,0.0,0.0,0.0,0.0,0.0,0.0,0.0
2316.350034516,pos,-821.6024507569763,-4999.32342790726,706.4827593353336,0.0,0.0,0.0,0.0,0.0,0.0,0.0,0.0
2316.350034516,imu,0.0,0.0,0.0,0.0,0.0,0.0,0.7002070547439924,0.7139398297382936,-0.041892871260643005,-26.78583335876465,0.9603745341300964
2316.400034517,speed,0.0,0.0,0.0,0.007629089965889591,0.0,0.0,0.0,0.0,0.0,0.0,0.0
2316.400034517,imu,0.0,0.0,0.0,0.0,0.0,0.0,0.7001448811702351,0.7140008020801638,0.0005850238958373666,-19.101306915283203,1.8917192220687866
2316.400034517,pos,-823.0353799784283,-4999.078377338566,706.4837397259425,0.0,0.0,0.0,0.0,0.0,0.0,0.0,0.0
2316.450034517,speed,0.0,0.0,0.0,-0.0040065527341157925,0.0,0.0,0.0,0.0,0.0,0.0,0.0
2316.450034517,imu,0.0,0.0,0.0,0.0,0.0,0.0,0.7001557492781514,0.7139901447168233,-0.0013003202620893717,-0.6922557353973389,-0.18710343539714813
2316.450034517,pos,-821.5209521227943,-5000.785143529577,706.4837270896746,0.0,0.0,0.0,0.0,0.0,0.0,0.0,0.0
2316.500034518,speed,0.0,0.0,0.0,-0.008619097422401361,0.0,0.0,0.0,0.0,0.0,0.0,0.0
2316.500034518,pos,-821.8203070584754,-4999.27544702613,706.4832475871955,0.0,0.0,0.0,0.0,0.0,0.0,0.0,0.0
2316.500034518,imu,0.0,0.0,0.0,0.0,0.0,0.0,0.7001601007315832,0.7139858775518878,0.002824080642312765,0.014093678444623947,-0.0014369122218340635
2316.550034519,speed,0.0,0.0,0.0,-0.009837528682344403,0.0,0.0,0.0,0.0,0.0,0.0,0.0
2316.550034519,imu,0.0,0.0,0.0,0.0,0.0,0.0,0.7001590128706634,0.7139869443456079,0.0010872399434447289,-0.1802777647972107,-0.05829992890357971
2316.550034519,pos,-822.9947882536093,-4998.977972965726,706.4826055820442,0.0,0.0,0.0,0.0,0.0,0.0,0.0,0.0
2316.60003452,speed,0.0,0.0,0.0,-0.009460293331834312,0.0,0.0,0.0,0.0,0.0,0.0,0.0
2316.60003452,imu,0.0,0.0,0.0,0.0,0.0,0.0,0.7001601007315832,0.7139858775518878,0.0007935278699733317,-0.2465602159500122,0.025055574253201485
2316.60003452,pos,-822.0152083151744,-4999.676429646161,706.4819955742116,0.0,0.0,0.0,0.0,0.0,0.0,0.0,0.0
2316.60003452,speed,0.0,0.0,0.0,-0.00864124617934453,0.0,0.0,0.0,0.0,0.0,0.0,0.0
2316.60003452,imu,0.0,0.0,0.0,0.0,0.0,0.0,0.7001611892558277,0.7139848101044342,0.0020760821644216776,-0.26188600063323975,-0.003838171251118183
2316.65003452,pos,-821.8543005277907,-4999.567575305069,706.4813874476515,0.0,0.0,0.0,0.0,0.0,0.0,0.0,0.0
